"Time (s)","Acceleration x (m/s^2)","Acceleration y (m/s^2)","Acceleration z (m/s^2)"
1.579576800E-2,-6.177040577E0,8.700529099E0,6.244078159E0
2.635576800E-2,-5.691017628E0,8.398859978E0,6.612784863E0
3.636538400E-2,-4.991910458E0,8.061277390E0,6.897695065E0
4.637523000E-2,-4.036623955E0,7.675810814E0,7.223306656E0
5.635453800E-2,-3.189076662E0,7.307103634E0,7.438784599E0
6.636415300E-2,-2.319981337E0,6.983886242E0,7.402871609E0
7.637399900E-2,-1.527500629E0,6.610390663E0,6.936002254E0
8.635330700E-2,-7.900865674E-1,6.165069580E0,6.382941723E0
9.636292200E-2,-2.944868207E-1,5.657498837E0,5.963956356E0
1.063727690E-1,-1.221042871E-1,5.152322292E0,5.743690014E0
1.163520760E-1,-1.005564705E-1,4.759673119E0,5.583278179E0
1.263616920E-1,8.858546615E-2,4.489128113E0,5.420472622E0
1.363715380E-1,6.703764796E-1,4.254496574E0,5.133168221E0
1.463508460E-1,9.145850539E-1,4.043806553E0,5.075707436E0
1.563604610E-1,1.403002143E0,3.797203779E0,5.499481201E0
1.663703070E-1,1.843535304E0,3.837905407E0,6.284779549E0
1.763496150E-1,1.874659896E0,4.170699596E0,7.457938194E0
1.863592300E-1,1.984793186E0,4.589684486E0,7.845798969E0
1.963690770E-1,1.932120800E0,4.872200489E0,7.208941460E0
2.063483840E-1,1.611297727E0,5.796362400E0,4.517858505E0
2.163580000E-1,2.521094322E0,7.065289021E0,3.260902643E0
2.263678460E-1,4.096478939E0,7.611167431E0,3.086126089E0
2.363471540E-1,2.815581083E0,6.950367451E0,2.408566952E0
2.463570000E-1,2.473210335E0,7.615955830E0,1.649604917E0
2.563666150E-1,3.112462163E-2,9.337387085E0,3.222595453E0
2.663459230E-1,-5.865794420E-1,1.192791271E1,4.570530891E0
2.763557690E-1,-3.122039080E0,1.174116516E1,9.323021889E0
2.863653840E-1,-2.643198729E0,1.064222622E1,1.240675354E1
2.963752310E-1,-9.481038451E-1,1.039083576E1,1.318008041E1
3.063545380E-1,-1.436521053E0,1.019451046E1,1.228464890E1
3.163641540E-1,-4.285621047E-1,9.217676163E0,1.117373943E1
3.263740000E-1,9.983820915E-1,7.982268333E0,1.010353088E1
3.363533080E-1,2.212242365E0,7.429207802E0,9.117119789E0
3.463629230E-1,2.363077164E0,7.592013359E0,8.468291283E0
3.563727690E-1,1.115697980E0,8.015787125E0,7.891288757E0
3.663520770E-1,-6.440402865E-1,8.224082947E0,7.671022415E0
3.763619230E-1,-2.305616140E0,8.274360657E0,7.876923561E0
3.863715380E-1,-3.816357613E0,8.444349289E0,8.944737434E0
3.963508460E-1,-4.515464306E0,8.128314972E0,9.473855972E0
4.063604620E-1,-4.496310711E0,7.137115479E0,8.906430244E0
4.163703080E-1,-2.923320293E0,6.873753071E0,8.590395927E0
4.263496160E-1,-7.972691655E-1,4.802768707E0,7.110779285E0
4.363592310E-1,1.889025092E0,2.176329374E0,5.698200226E0
4.463690770E-1,2.269703150E0,1.721431017E0,4.429273129E0
4.563483850E-1,-4.405331016E-1,3.148375273E0,4.630385876E0
4.663580000E-1,-3.713406801E0,3.574543238E0,6.150704384E0
4.763678460E-1,-5.056553841E0,3.150769472E0,7.038952827E0
4.863471540E-1,-5.379771233E0,2.439691544E0,7.450755596E0
4.963570000E-1,-5.738901615E0,6.200982332E-1,7.395689011E0
5.063666160E-1,-5.360617638E0,-2.178723514E-1,6.904877663E0
5.163459230E-1,-3.090914488E0,5.171475410E-1,7.058106422E0
5.263557700E-1,-6.416460276E-1,2.339135170E0,7.445967197E0
5.363653850E-1,-2.686294317E0,1.752555609E0,6.514622688E0
5.463752310E-1,-3.969586372E0,7.158663273E-1,6.696582317E0
5.563545390E-1,-5.707777023E0,-4.189853072E-1,7.091625214E0
5.663641540E-1,-7.417236805E0,-4.860229492E-1,7.419631004E0
5.763740000E-1,-9.306262016E0,3.902548850E-1,8.075642586E0
5.863533080E-1,-9.289502144E0,1.702277422E0,8.657433510E0
5.963629240E-1,-7.714118004E0,3.107673883E0,8.161833763E0
6.063727700E-1,-5.566518784E0,4.398148537E0,7.125144482E0
6.163520780E-1,-5.221754074E0,6.449979305E0,7.520187378E0
6.263616930E-1,-5.983109951E0,8.295908928E0,8.954314232E0
6.363715390E-1,-5.410895824E0,9.205705643E0,9.892841339E0
6.463508470E-1,-3.890577793E0,1.017535686E1,1.211944866E1
6.563604620E-1,-3.406949043E0,1.023521233E1,1.433169174E1
6.663703080E-1,-3.481169224E0,8.829815865E0,1.796848297E1
6.763496160E-1,-2.920926094E0,7.225700855E0,1.705150414E1
6.863592320E-1,5.032611847E0,9.349357605E0,1.368765068E1
6.963690780E-1,7.905653954E0,1.080024433E1,9.823410034E0
7.063483850E-1,7.168240070E0,9.062053680E0,6.337451935E0
7.163580010E-1,8.841787338E0,1.166694450E1,6.423643112E0
7.263678470E-1,1.027591324E1,1.100614548E1,6.696582317E0
7.363471550E-1,1.246660805E1,8.518569946E0,6.689399719E0
7.463570010E-1,1.217451572E1,8.518569946E0,5.173870087E0
7.563666160E-1,6.655880928E0,1.011310768E1,4.010287762E0
7.663459240E-1,-1.565807939E0,1.336682796E1,4.474762917E0
7.763557700E-1,-4.189853191E0,1.408508873E1,6.773196697E0
7.863653860E-1,2.978386879E0,8.664615631E0,6.361393929E0
7.963752320E-1,6.416460514E0,5.219359875E0,5.456385612E0
8.063545390E-1,5.975927353E0,5.827486992E0,6.208165169E0
8.163641550E-1,8.032546997E0,5.602431774E0,8.473079681E0
8.263740010E-1,8.942343712E0,4.999093056E0,1.012507915E1
8.363533090E-1,7.129932880E0,4.623203278E0,1.588552856E1
8.463629240E-1,8.482656479E0,2.655169725E0,1.111388397E1
8.563727700E-1,7.570465565E0,1.453280449E0,9.339780807E0
8.663520780E-1,7.132327080E0,-1.221042871E-1,7.043741226E0
8.763616940E-1,6.325480938E0,-1.005564690E0,4.077325344E0
8.863715400E-1,6.782773495E0,-1.750161409E0,1.616086125E0
8.963508470E-1,6.888118267E0,-2.518700123E0,4.285621047E-1
9.063604630E-1,7.115567684E0,-3.797203779E0,-8.571242094E-1
9.163703090E-1,5.252878666E0,-4.417302132E0,-2.061407566E0
9.263496170E-1,3.912125587E0,-3.588908434E0,-7.924807668E-1
9.363592320E-1,2.406172752E0,-4.125209332E0,3.256114423E-1
9.463690780E-1,6.895300746E-1,-4.807557106E0,1.915361404E0
9.563483860E-1,9.576806426E-2,-4.771644115E0,3.387795448E0
9.663580010E-1,9.097966552E-2,-4.024652958E0,2.736572504E0
9.763678480E-1,2.442085743E-1,-3.011905670E0,4.955997467E-1
9.863471550E-1,-5.985504389E-1,-2.183511972E0,-2.806004286E0
9.963570010E-1,-1.553836942E0,-5.937620401E-1,-6.162675381E0
1.006366617E0,1.865083098E0,2.264914751E0,-8.520963669E0
1.016345925E0,-1.235408068E0,3.787626982E0,-8.078036308E0
1.026355771E0,-5.442020416E0,3.660734415E0,-2.039859772E0
1.036365386E0,3.658340216E0,3.366247654E0,-8.140285611E-1
1.046375232E0,5.772420406E0,2.932897091E0,7.180211067E0
1.056354540E0,8.410830498E0,8.044517636E-1,1.196861458E1
1.066364156E0,1.163342571E1,5.746083856E-1,1.501643276E1
1.076374002E0,1.170764637E1,1.848323703E0,1.619198608E1
1.086353309E0,1.063743782E1,2.896984100E0,1.276348972E1
1.096362925E0,8.808267593E0,2.762908697E0,6.878541470E0
1.106372771E0,8.030152321E0,2.420537949E0,1.125274777E0
1.116352079E0,9.234436035E0,2.233790159E0,-2.408566952E0
1.126361694E0,1.135330486E1,2.990357876E0,-2.509123325E0
1.136371540E0,1.480095482E1,4.853046894E0,2.609679997E-1
1.146350848E0,1.982638359E1,7.122750282E0,2.262520552E0
1.156360463E0,2.540966225E1,1.001015759E1,-4.118026793E-1
1.166370310E0,2.904884911E1,1.442745972E1,-6.256049156E0
1.176349617E0,3.254917145E1,1.934754372E1,-1.199016190E1
1.186359233E0,3.493858719E1,2.114798355E1,-1.566286755E1
1.196369079E0,3.326743317E1,2.099236107E1,-1.436999893E1
1.206348387E0,2.726277542E1,2.178723526E1,-9.272743225E0
1.216358002E0,1.985990334E1,1.988384438E1,-4.127603531E0
1.226367848E0,8.987833023E0,1.873702240E1,1.222958183E1
1.236347156E0,6.770802498E0,1.715445518E1,1.250730991E1
1.246357002E0,3.694253206E0,1.532289124E1,1.730050087E1
1.256366617E0,2.406172752E0,1.440830612E1,2.029325294E1
1.266345925E0,2.310404539E0,1.414973164E1,2.178962898E1
1.276355771E0,2.717418909E0,1.365892029E1,2.162921906E1
1.286365387E0,4.565742493E0,1.275870132E1,1.952231979E1
1.296375233E0,5.377377033E0,1.172440529E1,1.674983597E1
1.306354541E0,6.318298340E0,1.055124664E1,1.337401104E1
1.316364156E0,7.546523571E0,9.425971985E0,1.010592556E1
1.326374002E0,9.160215378E0,8.485051155E0,8.010998726E0
1.336353310E0,1.105402946E1,7.891288757E0,7.285555840E0
1.346362925E0,1.290235329E1,7.508216381E0,7.675810814E0
1.356372772E0,1.538035202E1,7.809885979E0,8.992621422E0
1.366352079E0,1.759977722E1,8.465897560E0,1.131739140E1
1.376361695E0,1.972822189E1,8.379706383E0,1.319923401E1
1.386371541E0,2.127008820E1,9.466673851E0,1.552639771E1
1.396350849E0,2.216073036E1,1.014423275E1,1.626620674E1
1.406360464E0,2.152866173E1,9.354146004E0,1.418564510E1
1.416370310E0,1.936669731E1,7.556100368E0,1.057040024E1
1.426349618E0,1.782722664E1,6.993463039E0,7.996633530E0
1.436359233E0,1.778652382E1,6.222530365E0,5.164293289E0
1.446369079E0,1.712093544E1,5.147533417E0,2.506729126E0
1.456348387E0,1.561258888E1,4.192247391E0,1.316810995E-1
1.466358003E0,1.314656162E1,3.138798475E0,-1.618480325E0
1.476367849E0,1.046745014E1,1.884236693E0,-3.069366693E0
1.486347157E0,7.649474621E0,7.015010715E-1,-4.094084740E0
1.496357003E0,4.355052948E0,-1.987187415E-1,-4.007893562E0
1.506366618E0,2.329558372E0,-1.007958889E0,-3.361459255E0
1.516345926E0,1.391031146E0,-1.855506301E0,-2.719813108E0
1.526355772E0,1.072602391E0,-2.650381327E0,-2.269703150E0
1.536365387E0,1.218648672E0,-3.342305660E0,-2.188300371E0
1.546375234E0,1.455674648E0,-4.194641590E0,-2.590526342E0
1.556354541E0,1.307234168E0,-4.683058739E0,-3.114856482E0
1.566364157E0,9.337386489E-1,-5.109226227E0,-3.983951569E0
1.576374003E0,1.115697980E0,-5.738901615E0,-4.879383087E0
1.586353311E0,1.640028119E0,-6.466738701E0,-5.702988625E0
1.596362926E0,2.164358377E0,-6.756437302E0,-6.670246124E0
1.606372772E0,2.588132143E0,-7.199364662E0,-7.747636795E0
1.616352080E0,2.382230759E0,-7.575253963E0,-8.449137688E0
1.626361695E0,1.307234168E0,-7.807491779E0,-9.100360870E0
1.636371541E0,-2.394201700E-3,-8.183381081E0,-9.725247383E0
1.646350849E0,-1.278503656E0,-8.403648376E0,-9.947908401E0
1.656360695E0,-4.309563041E-1,-8.461109161E0,-9.224859238E0
1.666370311E0,1.620874524E0,-8.350975990E0,-7.618350029E0
1.676349618E0,4.548983097E0,-7.814674377E0,-5.681440830E0
1.686359234E0,7.352593422E0,-6.856993675E0,-3.916913986E0
1.696369080E0,8.604761124E0,-5.731719017E0,-3.706224203E0
1.706348388E0,7.474697590E0,-4.718971729E0,-5.142745018E0
1.716358003E0,4.321534157E0,-3.914519787E0,-7.527369976E0
1.726367849E0,2.212242365E0,-2.810792685E0,-7.460332394E0
1.736347157E0,3.835511208E0,-1.338358760E0,-2.202665567E0
1.746357003E0,1.023042393E1,1.482010841E0,5.236119270E0
1.756366619E0,2.167470741E1,6.083666325E0,1.243548393E1
1.766345926E0,3.340629578E1,1.174355888E1,1.647689629E1
1.776355773E0,4.053383636E1,1.701080322E1,1.487996387E1
1.786365388E0,4.230315018E1,2.177765846E1,8.992621422E0
1.796375234E0,3.847721481E1,2.510799408E1,2.633621991E-1
1.806354542E0,3.148135757E1,2.574963951E1,-5.631162167E0
1.816364157E0,2.706884384E1,2.466027832E1,-7.211335659E0
1.826374003E0,2.461718178E1,2.257253456E1,-4.802768707E0
1.836353311E0,2.148317146E1,1.991257477E1,-7.062895298E-1
1.846362927E0,1.689109230E1,1.719276237E1,3.921702385E0
1.856372773E0,1.232774448E1,1.506431675E1,8.394071579E0
1.866352080E0,9.074024200E0,1.370441055E1,1.096304989E1
1.876361696E0,6.847416878E0,1.274194145E1,1.058237171E1
1.886371542E0,5.166687489E0,1.213860226E1,8.118738174E0
1.896350850E0,3.572149038E0,1.167652130E1,5.221754074E0
1.906360465E0,2.154781580E0,1.142513084E1,2.724601507E0
1.916370311E0,1.029506683E0,1.119528675E1,9.911994934E-1
1.926349619E0,1.053448766E-1,1.073081207E1,2.657563984E-1
1.936359235E0,-7.278373241E-1,1.021845245E1,7.230489254E-1
1.946369081E0,-1.422155857E0,9.648633003E0,2.047042370E0
1.956348388E0,-1.467645645E0,9.100360870E0,3.610456228E0
1.966358004E0,-1.405396342E0,8.942343712E0,5.439626217E0
1.976367850E0,-1.268926859E0,8.942343712E0,6.809109688E0
1.986347158E0,-9.074024558E-1,9.109937668E0,7.441178799E0
1.996357004E0,-7.565677166E-1,9.253589630E0,7.654263020E0
2.006366619E0,-1.177947283E0,9.253589630E0,7.359776020E0
2.016345927E0,-1.228225470E0,9.172186852E0,6.476315498E0
2.026355773E0,-3.256114423E-1,9.102754593E0,5.674258232E0
2.036365389E0,1.108515382E0,9.131484985E0,5.820304394E0
2.046375235E0,2.966415882E0,9.258378029E0,6.483498096E0
2.056354542E0,4.860229492E0,9.313444138E0,6.749254704E0
2.066364158E0,6.423643112E0,9.514557838E0,7.010222435E0
2.076374004E0,7.730877399E0,1.028549004E1,6.624756336E0
2.086353312E0,8.559270859E0,1.215296745E1,6.153098583E0
2.096362927E0,8.489839554E0,1.513374901E1,7.196970463E0
2.106372773E0,9.038111687E0,1.821029854E1,8.233659744E0
2.116352081E0,1.004607010E1,2.062844276E1,1.073081207E1
2.126361696E0,1.671870995E1,2.308010483E1,1.727655983E1
2.136371543E0,2.527319336E1,2.428678131E1,2.083434296E1
2.146350850E0,2.832101250E1,2.214875984E1,1.638591576E1
2.156360466E0,2.535938454E1,1.870350456E1,9.258378029E0
2.166370312E0,2.068350792E1,1.639070511E1,2.516305923E0
2.176349620E0,1.803312683E1,1.423592377E1,-2.444479942E0
2.186359235E0,1.564371395E1,1.204283428E1,-5.056553841E0
2.196369081E0,1.341950035E1,9.428366661E0,-5.477933407E0
2.206348389E0,1.074996567E1,6.509834290E0,-5.178658485E0
2.216358004E0,7.627926826E0,3.837905407E0,-4.786009312E0
2.226367851E0,4.182670593E0,1.740584612E0,-3.940855980E0
2.236347158E0,1.874659896E0,-1.029506698E-1,-2.743755102E0
2.246357004E0,1.513135433E0,-1.321599364E0,-1.912967205E0
2.256366620E0,2.054224968E0,-2.044648170E0,-1.644816518E0
2.266345928E0,2.671929121E0,-2.688688517E0,-1.747767210E0
2.276355774E0,3.011905670E0,-3.280056238E0,-1.814804912E0
2.286365389E0,2.865859509E0,-3.979163170E0,-1.821987510E0
2.296375235E0,2.935291290E0,-4.757278919E0,-2.087743998E0
2.306354543E0,3.081337690E0,-5.647922039E0,-2.128445387E0
2.316364158E0,3.562572241E0,-6.210559368E0,-1.824381709E0
2.326374005E0,4.027047157E0,-6.521805286E0,-1.812410712E0
2.336353312E0,4.125209332E0,-6.912060261E0,-2.319981337E0
2.346362928E0,3.418920040E0,-7.208941460E0,-3.349488258E0
2.356372774E0,2.300827742E0,-7.455543995E0,-4.984727859E0
2.366352082E0,8.451532125E-1,-7.690176010E0,-6.715735912E0
2.376361697E0,-5.770025849E-1,-7.671022415E0,-8.058882713E0
2.386371543E0,-1.345541358E0,-7.443572998E0,-8.695740700E0
2.396350851E0,-1.455674648E0,-7.326257229E0,-8.573636055E0
2.406360466E0,-6.368576288E-1,-7.256825447E0,-7.417236805E0
2.416370313E0,8.954314590E-1,-6.821080685E0,-5.707777023E0
2.426349620E0,2.444479942E0,-6.272808552E0,-4.180276394E0
2.436359236E0,3.294421434E0,-5.415684223E0,-4.065354347E0
2.446369082E0,1.855506301E0,-4.508281708E0,-6.033388138E0
2.456348390E0,-6.416460276E-1,-3.866635799E0,-8.592789650E0
2.466358005E0,4.165911078E-1,-3.083731890E0,-8.528146744E0
2.476367851E0,4.721365929E0,-1.465251446E0,-6.086060524E0
2.486347159E0,1.189200020E1,1.745373011E0,-2.676717520E0
2.496357005E0,2.189976311E1,5.978321552E0,8.690952063E-1
2.506366620E0,3.195541000E1,1.071884060E1,4.707000732E0
2.516345928E0,3.821864319E1,1.583046150E1,7.182605267E0
2.526355774E0,3.795049286E1,2.032437897E1,5.959167957E0
2.536365390E0,3.460100174E1,2.238099670E1,1.637633920E0
2.546375236E0,2.987484932E1,2.312798882E1,-2.509123325E0
2.556354544E0,2.563471794E1,2.254859161E1,-4.146757126E0
2.566364159E0,2.268266678E1,2.138261604E1,-2.829946518E0
2.576374005E0,2.009214020E1,2.025255203E1,-2.130839527E-1
2.586353313E0,1.732444382E1,1.892377090E1,2.181117773E0
2.596362928E0,1.411381912E1,1.747527885E1,4.146757126E0
2.606372775E0,1.203325748E1,1.647689629E1,4.910507679E0
2.616352082E0,1.056082344E1,1.578736591E1,4.884171486E0
2.626361698E0,9.466673851E0,1.528697777E1,4.230554581E0
2.636371544E0,8.128314972E0,1.481532001E1,3.325546265E0
2.646350852E0,6.600813866E0,1.418085670E1,2.583343744E0
2.656360467E0,5.161899090E0,1.337401104E1,2.339135170E0
2.666370313E0,3.703830004E0,1.249533844E1,2.832340717E0
2.676349621E0,2.674323320E0,1.172440529E1,3.782838583E0
2.686359236E0,1.683123827E0,1.114261436E1,4.924872875E0
2.696369082E0,9.481038451E-1,1.081700325E1,6.014234543E0
2.706348390E0,5.722141862E-1,1.060631371E1,6.900089264E0
2.716358006E0,1.915361285E-1,1.036689377E1,7.556100368E0
2.726367852E0,-2.059013397E-1,1.002691650E1,7.994239330E0
2.736347159E0,-4.740519226E-1,9.615114212E0,8.180987358E0
2.746357006E0,-6.631938815E-1,9.085995674E0,8.123526573E0
2.756366621E0,-6.512228847E-1,8.554482460E0,7.778761387E0
2.766345929E0,-4.285621047E-1,7.977479935E0,7.273584843E0
2.776355775E0,-1.651999205E-1,7.319074631E0,6.763619900E0
2.786365390E0,1.604115069E-1,6.974309444E0,6.574477673E0
2.796375237E0,1.084573388E0,7.161057472E0,6.610390663E0
2.806354544E0,2.114080191E0,7.848193169E0,6.335057735E0
2.816364160E0,3.332728863E0,9.255983353E0,5.482721806E0
2.826374006E0,4.738125324E0,1.093671322E1,4.757278919E0
2.836353314E0,6.998251438E0,1.356075859E1,4.594472885E0
2.846362929E0,1.042435455E1,1.706587029E1,5.726930618E0
2.856372775E0,1.520557499E1,2.059252930E1,8.667010307E0
2.866352083E0,1.952710915E1,2.388216209E1,1.213620853E1
2.876361929E0,2.264914894E1,2.535938454E1,1.327584839E1
2.886371544E0,2.478477669E1,2.394680595E1,1.061110210E1
2.896350852E0,2.441846275E1,2.113122368E1,6.442796707E0
2.906360468E0,2.223255730E1,1.851914978E1,2.121262789E0
2.916370314E0,1.928529549E1,1.553597450E1,-1.841141105E0
2.926349621E0,1.535401535E1,1.262462521E1,-4.699818134E0
2.936359468E0,1.133415127E1,9.787496567E0,-6.107608318E0
2.946369083E0,7.829039574E0,7.189787865E0,-5.882553577E0
2.956348391E0,5.087678432E0,4.671087742E0,-4.625597477E0
2.966358006E0,2.796427488E0,2.803610086E0,-3.270479441E0
2.976367852E0,1.307234168E0,1.398213744E0,-1.848323703E0
2.986347160E0,8.834604025E-1,1.723825186E-1,-5.889736414E-1
2.996357006E0,1.891419291E0,-9.672574997E-1,-2.035071403E-1
3.006366622E0,3.014299870E0,-1.872265697E0,-7.829039693E-1
3.016345929E0,4.161122322E0,-2.693476915E0,-1.989581585E0
3.026355776E0,4.477157116E0,-3.816357613E0,-3.043030262E0
3.036365391E0,4.692635536E0,-4.908113480E0,-3.636792421E0
3.046375237E0,4.927267075E0,-6.064512730E0,-3.627215624E0
3.056354545E0,5.123591423E0,-7.120356083E0,-3.562572241E0
3.066364160E0,5.298368454E0,-8.090007782E0,-3.770867586E0
3.076374006E0,5.226542473E0,-8.971074104E0,-4.666299343E0
3.086353314E0,4.182670593E0,-9.421183586E0,-5.681440830E0
3.096362930E0,2.061407566E0,-9.691728592E0,-6.878541470E0
3.106372776E0,-4.692635238E-1,-1.009395409E1,-8.322244644E0
3.116352083E0,-2.336740971E0,-1.010592556E1,-8.841787338E0
3.126361699E0,-3.066972494E0,-1.006522369E1,-8.583212852E0
3.136371545E0,-2.592920542E0,-9.883264542E0,-7.544129372E0
3.146350853E0,-5.147533417E-1,-9.282320023E0,-5.975927353E0
3.156360468E0,2.535459518E0,-8.523358345E0,-4.424484730E0
3.166370314E0,4.939238071E0,-7.388506413E0,-3.277662039E0
3.176349622E0,5.607220173E0,-6.212953568E0,-3.806780815E0
3.186359237E0,3.943250179E0,-5.171475887E0,-5.501875401E0
3.196369084E0,2.140416384E0,-4.357447147E0,-6.670246124E0
3.206348391E0,2.104503393E0,-3.521870613E0,-6.344634533E0
3.216358007E0,4.955997467E0,-2.013523579E0,-4.498704910E0
3.226367853E0,1.099656868E1,1.367089152E0,-1.580173135E0
3.236347161E0,1.958696365E1,6.110002518E0,1.017535686E0
3.246357007E0,3.145981026E1,1.096304989E1,1.946485996E0
3.256366622E0,4.007654190E1,1.603396797E1,1.046266198E0
3.266345930E0,4.196556854E1,2.069308472E1,-1.292868972E0
3.276355776E0,3.855382919E1,2.342486954E1,-5.078101635E0
3.286365392E0,3.278619766E1,2.431072426E1,-7.884106159E0
3.296375238E0,2.692519188E1,2.377681732E1,-7.972691536E0
3.306354545E0,2.230198860E1,2.261802292E1,-5.568912983E0
3.316364161E0,1.942415810E1,2.124854088E1,-1.915361404E0
3.326374007E0,1.728374290E1,2.030761909E1,2.229001760E0
3.336353315E0,1.552639771E1,1.948161888E1,4.788403511E0
3.346362930E0,1.348893261E1,1.856703377E1,5.612008572E0
3.356372776E0,1.122880554E1,1.757344055E1,5.303156853E0
3.366352084E0,8.856152534E0,1.668279839E1,4.371812344E0
3.376361699E0,6.624756336E0,1.582806778E1,2.995146275E0
3.386371546E0,5.008669853E0,1.509065342E1,1.824381709E0
3.396350853E0,3.734954596E0,1.430774975E1,1.558625340E0
3.406513084E0,2.808398485E0,1.358230591E1,2.104503393E0
3.416370315E0,1.934514999E0,1.275870132E1,3.153163671E0
3.426349623E0,1.319205165E0,1.200452709E1,4.441244125E0
3.436359238E0,9.935936928E-1,1.138442898E1,5.686229229E0
3.446369084E0,6.177040339E-1,1.072123528E1,6.746860504E0
3.456348392E0,4.213795066E-1,1.015380955E1,7.742848396E0
3.466358007E0,6.799532771E-1,9.617507935E0,8.339004517E0
3.476367854E0,6.272808313E-1,9.208099365E0,8.262390137E0
3.486347161E0,5.051765442E-1,8.686163902E0,7.625532627E0
3.496357007E0,4.955997467E-1,8.209717751E0,6.756437302E0
3.506366623E0,9.385270476E-1,7.915230751E0,6.011840343E0
3.516345931E0,2.157175779E0,7.910442352E0,5.626373768E0
3.526355777E0,4.213795185E0,8.173804283E0,5.475539207E0
3.536365392E0,6.593631268E0,8.863334656E0,6.241683960E0
3.546375238E0,7.584830761E0,9.892841339E0,7.074865818E0
3.556354546E0,8.590395927E0,1.166455078E1,7.848193169E0
3.566364161E0,9.569623947E0,1.411621284E1,8.353369713E0
3.576374008E0,1.091516590E1,1.666843224E1,8.813055992E0
3.586353315E0,1.515529633E1,1.963484764E1,9.684545517E0
3.596362931E0,2.211284637E1,2.301546097E1,9.866505623E0
3.606372777E0,2.799540138E1,2.509123421E1,8.470685959E0
3.616352085E0,2.962345695E1,2.377202797E1,4.948814869E0
3.626361700E0,2.771049118E1,2.107615662E1,3.998316824E-1
3.636371546E0,2.458845139E1,1.848084259E1,-3.761290789E0
3.646350854E0,2.091814041E1,1.552160931E1,-6.105214119E0
3.656360469E0,1.725979996E1,1.250730991E1,-6.131550789E0
3.666370316E0,1.387918758E1,9.466673851E0,-4.735731125E0
3.676349623E0,1.029746151E1,6.337451935E0,-3.344699860E0
3.686359239E0,6.473921299E0,3.450044632E0,-1.903390408E0
3.696369085E0,3.931279182E0,1.323993564E0,-8.858546019E-1
3.706348393E0,2.851494312E0,-5.027823448E-1,7.900865376E-2
3.716358008E0,2.274491549E0,-1.489193439E0,2.418143749E-1
3.726367854E0,2.698265314E0,-3.004723072E0,-5.817909837E-1
3.736347162E0,2.791639090E0,-4.484339714E0,-1.649604917E0
3.746357008E0,2.540247917E0,-5.391742229E0,-2.748543501E0
3.756366623E0,2.319981337E0,-6.550535679E0,-3.825934410E0
3.766345931E0,3.148375273E0,-7.702147007E0,-4.400542736E0
3.776355777E0,4.000710964E0,-8.664615631E0,-4.484339714E0
3.786365393E0,4.481945515E0,-9.471462250E0,-4.335899353E0
3.796375239E0,4.383783340E0,-1.021605873E1,-4.264073372E0
3.806354547E0,3.265691042E0,-1.079066753E1,-4.888959885E0
3.816364162E0,1.134851575E0,-1.108275986E1,-6.167463779E0
3.826374008E0,-1.795651317E0,-1.127190113E1,-7.845798969E0
3.836353316E0,-3.763684988E0,-1.101332760E1,-8.951920509E0
3.846362931E0,-4.328716755E0,-1.048899746E1,-8.853757858E0
3.856372778E0,-3.201047659E0,-9.809044838E0,-7.728483200E0
3.866352085E0,-3.256114423E-1,-9.016563416E0,-6.026205540E0
3.876361701E0,2.887407303E0,-8.087613106E0,-4.060565948E0
3.886371547E0,5.576095581E0,-6.806715488E0,-1.766920805E0
3.896350855E0,7.194576263E0,-4.984727859E0,2.849099934E-1
3.906360470E0,6.722918510E0,-3.224989653E0,8.834604025E-1
3.916370316E0,4.326322556E0,-1.666364431E0,-1.096544385E0
3.926349624E0,1.580173135E0,-3.878606856E-1,-4.436455727E0
3.936359239E0,9.121908545E-1,1.374271750E0,-7.654263020E0
3.946369085E0,3.126827478E0,3.713406801E0,-9.402029991E0
3.956348393E0,8.429984093E0,7.026981831E0,-9.782708168E0
3.966358009E0,1.737472153E1,1.083855152E1,-8.310274124E0
3.976367855E0,2.887167740E1,1.537077522E1,-5.365406036E0
3.986347162E0,3.583641052E1,1.988145065E1,-2.461239338E0
3.996357009E0,3.557783890E1,2.306095123E1,-2.035071373E0
4.006366624E0,3.011666298E1,2.422932053E1,-4.673481941E0
4.016345932E0,2.319502640E1,2.400905418E1,-8.030152321E0
4.026355778E0,1.772906303E1,2.320699692E1,-1.042435455E1
4.036365393E0,1.551203251E1,2.240493965E1,-1.095107841E1
4.046375240E0,1.479377270E1,2.154542160E1,-8.686163902E0
4.056354547E0,1.395101357E1,2.053027916E1,-5.770026207E0
4.066364163E0,1.297896767E1,1.938824463E1,-3.387795448E0
4.076374009E0,1.152568722E1,1.814086533E1,-2.111685991E0
4.086353317E0,9.844957352E0,1.702516747E1,-1.532289028E0
4.096362932E0,8.456320763E0,1.598847866E1,-1.319205165E0
4.106372778E0,6.974309444E0,1.502600956E1,-1.125274777E0
4.116352086E0,4.955997467E0,1.394861889E1,-4.501099288E-1
4.126361701E0,3.584120035E0,1.316332054E1,8.978256583E-1
4.136371547E0,2.767697096E0,1.251928043E1,2.700659513E0
4.146350855E0,2.257732153E0,1.198776817E1,4.551377296E0
4.156360471E0,1.958456993E0,1.159990692E1,6.148310184E0
4.166370317E0,1.719036818E0,1.137006378E1,7.264008045E0
4.176349624E0,1.443703651E0,1.118331623E1,7.841010571E0
4.186359240E0,1.187524080E0,1.103008747E1,7.680599213E0
4.196369086E0,1.323993564E0,1.075235939E1,7.182605267E0
4.206348394E0,1.264138460E0,1.040041256E1,6.548141479E0
4.216358009E0,1.484405041E0,9.991003990E0,5.487510204E0
4.226367855E0,1.764526606E0,9.459490776E0,4.857835293E0
4.236347163E0,2.315192938E0,8.798690796E0,4.663905144E0
4.246357009E0,3.043030262E0,8.511386871E0,4.472368717E0
4.256366625E0,3.818751812E0,8.571242332E0,4.129997730E0
4.266345932E0,5.509057999E0,9.071630478E0,4.247313976E0
4.276355779E0,7.242460251E0,1.029506683E1,4.508281708E0
4.286365394E0,8.707711220E0,1.199016190E1,4.944026470E0
4.296375240E0,9.952696800E0,1.459026527E1,6.296750546E0
4.306354548E0,1.303164005E1,1.805946350E1,7.635109425E0
4.316364163E0,1.765723801E1,2.152626801E1,6.677428722E0
4.326374009E0,2.161485291E1,2.432748413E1,3.483563423E0
4.336353317E0,2.425565720E1,2.601778984E1,1.233013868E0
4.346362933E0,2.508644485E1,2.528995323E1,1.726219416E0
4.356372779E0,2.350866699E1,2.245761108E1,2.238578558E0
4.366352086E0,1.952231979E1,1.881842613E1,1.333570361E0
4.376361702E0,1.557667637E1,1.554315758E1,1.987187415E-1
4.386371548E0,1.205001736E1,1.238759995E1,-4.237737060E-1
4.396350856E0,8.913613319E0,9.375694275E0,-6.991068721E-1
4.406360471E0,6.232107162E0,6.244078159E0,-1.295263171E0
4.416370317E0,3.902548790E0,3.960009575E0,-1.970427990E0
4.426349625E0,1.810016513E0,2.185906172E0,-3.052607059E0
4.436359240E0,1.053448766E-1,8.092401624E-1,-4.311957359E0
4.446369087E0,-1.094150186E0,-2.681505978E-1,-5.327098846E0
4.456348394E0,-1.364694953E0,-1.120486379E0,-6.076483727E0
4.466358010E0,-1.175553083E0,-1.862688899E0,-6.021417141E0
4.476367856E0,-5.865794420E-1,-2.719813108E0,-5.130774021E0
4.486347164E0,-3.830722719E-2,-3.421314240E0,-4.000710964E0
4.496357010E0,8.643068075E-1,-4.259284973E0,-2.861071110E0
4.506366625E0,2.173935175E0,-5.212177277E0,-1.970427990E0
4.516345933E0,3.490746021E0,-5.961562157E0,-1.496376038E0
4.526355779E0,4.311957359E0,-6.777985096E0,-1.649604917E0
4.536365395E0,4.264073372E0,-7.378929615E0,-2.458845139E0
4.546375241E0,3.313575268E0,-7.931990147E0,-3.397372246E0
4.556354548E0,1.482010841E0,-8.477868080E0,-4.338293552E0
4.566364164E0,3.591302410E-2,-9.112331390E0,-5.626373768E0
4.576374010E0,-7.661445141E-1,-9.478644371E0,-7.038952827E0
4.586353318E0,-7.110779285E-1,-9.440337181E0,-7.481880188E0
4.596362933E0,6.105214357E-1,-9.196128845E0,-6.684611320E0
4.606372779E0,3.280056238E0,-8.757989883E0,-5.209783077E0
4.616352087E0,5.695806026E0,-8.240841866E0,-3.371036053E0
4.626361702E0,7.156269073E0,-7.098807812E0,-1.900996208E0
4.636371549E0,7.539340973E0,-5.719748020E0,-9.720458984E-1
4.646350856E0,7.053318024E0,-4.371812344E0,-1.182735682E0
4.656360472E0,5.906495571E0,-3.172317266E0,-3.134010077E0
4.666370318E0,5.312733650E0,-2.217030764E0,-4.845864296E0
4.676349626E0,5.334281445E0,-6.416460276E-1,-5.319916248E0
4.686359241E0,6.799532890E0,1.493981838E0,-4.527435303E0
4.696369087E0,1.270123959E1,5.173870087E0,-2.408566952E0
4.706348395E0,2.372653961E1,9.325415611E0,9.816227108E-2
4.716358010E0,3.520912933E1,1.473152351E1,3.222595453E0
4.726367857E0,4.125927734E1,2.054224968E1,5.248090267E0
4.736347164E0,4.093366623E1,2.464591217E1,4.065354347E0
4.746357010E0,3.549643326E1,2.676238632E1,-6.943184733E-1
4.756366626E0,2.806483269E1,2.670253181E1,-6.287173748E0
4.766345934E0,2.219425011E1,2.540726852E1,-9.107542992E0
4.776355780E0,1.920389175E1,2.419580269E1,-8.360552788E0
4.786365395E0,1.820311546E1,2.291250992E1,-5.980715752E0
4.796375241E0,1.655829811E1,2.143528748E1,-2.877830505E0
4.806354549E0,1.395819569E1,1.974737549E1,-3.160346150E-1
4.816364164E0,1.184411621E1,1.826296997E1,1.532289028E0
4.826374011E0,1.075714779E1,1.715924263E1,2.896984100E0
4.836353318E0,9.900024414E0,1.635239792E1,3.586514235E0
4.846362934E0,7.979874134E0,1.549287891E1,3.418920040E0
4.856372780E0,5.896918774E0,1.455435181E1,3.270479441E0
4.866352088E0,4.340687752E0,1.364216137E1,3.404554844E0
4.876361703E0,3.169923067E0,1.277306652E1,3.737348795E0
4.886371549E0,1.968033791E0,1.199016190E1,4.855441093E0
4.896350857E0,6.512228847E-1,1.135569859E1,6.028599739E0
4.906360472E0,-2.442085743E-1,1.078587818E1,6.607996464E0
4.916370319E0,-1.017535686E0,1.018972206E1,6.993463039E0
4.926349626E0,-1.206677675E0,9.586383820E0,7.180211067E0
4.936359242E0,-4.285621047E-1,8.985439301E0,7.182605267E0
4.946369088E0,5.339069963E-1,8.525752068E0,7.161057472E0
4.956348396E0,1.163581967E0,7.817068577E0,6.821080685E0
4.966358011E0,1.063025594E0,7.376535416E0,6.167463779E0
4.976367857E0,8.092401624E-1,7.079654217E0,5.032611847E0
4.986347165E0,8.379706144E-1,6.880935669E0,4.132391930E0
4.996357011E0,2.138022184E0,6.928819656E0,4.965574265E0
5.006366626E0,4.718971729E0,7.393294811E0,6.890512466E0
5.016345934E0,7.089231014E0,8.030152321E0,7.886500359E0
5.026355780E0,7.848193169E0,9.435548782E0,8.315062523E0
5.036365396E0,8.264783859E0,1.192551899E1,8.468291283E0
5.046375242E0,9.117119789E0,1.528697777E1,8.322244644E0
5.056354550E0,1.190875912E1,1.929965973E1,7.709329605E0
5.066364165E0,1.639549255E1,2.301306725E1,6.950367451E0
5.076374011E0,2.286941528E1,2.551740265E1,7.129932880E0
5.086353319E0,2.667140770E1,2.543599892E1,6.519411087E0
5.096362934E0,2.581428337E1,2.274491692E1,4.170699596E0
5.106372781E0,2.198834801E1,2.020706177E1,2.293645144E0
5.116352088E0,1.863646698E1,1.739148140E1,8.978256583E-1
5.126361704E0,1.570596313E1,1.415452003E1,-3.591302410E-2
5.136371550E0,1.259589481E1,1.104445267E1,-5.195417404E-1
5.146350858E0,9.500192642E0,8.073247910E0,-1.043871999E0
5.156360473E0,6.275202751E0,5.537788391E0,-1.946485996E0
5.166370319E0,3.466804028E0,3.694253206E0,-2.817975283E0
5.176349627E0,2.130839586E0,2.145204782E0,-3.368641853E0
5.186359242E0,1.582567334E0,1.086967587E0,-3.469198227E0
5.196369088E0,1.537077546E0,-4.309562966E-2,-3.277662039E0
5.206348396E0,1.891419291E0,-1.814804912E0,-2.741360903E0
5.216358012E0,2.181117773E0,-2.975992680E0,-2.257732153E0
5.226367858E0,2.473210335E0,-3.902548790E0,-1.908178806E0
5.236347165E0,2.573766708E0,-4.865017891E0,-1.788468719E0
5.246357012E0,3.287238836E0,-5.916072369E0,-1.754949808E0
5.256366627E0,4.232948780E0,-6.773196697E0,-1.666364431E0
5.266345935E0,5.011064053E0,-7.491456985E0,-1.757344007E0
5.276355781E0,5.145139217E0,-8.099584579E0,-2.173935175E0
5.286365396E0,4.247313976E0,-8.611943245E0,-3.234566450E0
5.296375243E0,2.767697096E0,-9.143456459E0,-4.738125324E0
5.306354550E0,6.679822803E-1,-9.399636269E0,-6.385335922E0
5.316364166E0,-1.678335428E0,-9.555258751E0,-7.615955830E0
5.326374012E0,-3.397372246E0,-9.701305389E0,-7.999027729E0
5.336353320E0,-3.473986626E0,-9.576807022E0,-7.467514992E0
5.346362935E0,-1.489193439E0,-9.117119789E0,-6.019022942E0
5.356372781E0,9.409212470E-1,-8.614337921E0,-4.616020679E0
5.366352089E0,3.055001259E0,-7.807491779E0,-3.509899616E0
5.376361704E0,3.634398222E0,-6.672640324E0,-3.181894064E0
5.386371550E0,2.099714994E0,-5.580883980E0,-5.042188644E0
5.396350858E0,-3.495534360E-1,-4.714183331E0,-8.209717751E0
5.406360474E0,-8.690952063E-1,-3.483563423E0,-1.100135708E1
5.416020385E0,1.484405041E0,-1.771709204E0,-1.231577396E1
5.426330769E0,9.583989143E0,9.792284966E-1,-1.185129833E1
5.436340385E0,2.133233643E1,4.515464306E0,-7.982268333E0
5.446350231E0,3.606864929E1,8.573636055E0,-4.548983276E-2
5.456329539E0,4.801571655E1,1.365652657E1,9.636661530E0
5.466339154E0,5.282806015E1,1.843295860E1,1.787989807E1
5.476349000E0,4.755123901E1,2.160527611E1,2.070745087E1
5.486328308E0,3.608061981E1,2.282871246E1,1.748964310E1
5.496338154E0,2.523727989E1,2.193328094E1,1.130781460E1
5.506347770E0,1.944091797E1,2.094687080E1,7.410054207E0
5.516327077E0,1.630212021E1,1.979765320E1,6.411672115E0
5.526336924E0,1.396059036E1,1.848084259E1,7.065289021E0
5.536346539E0,1.184411621E1,1.714248466E1,8.149862289E0
5.546356385E0,9.900024414E0,1.588552856E1,9.143456459E0
5.556335693E0,8.583212852E0,1.480813789E1,9.706093788E0
5.566345308E0,7.192182064E0,1.385763931E1,9.308655739E0
5.576355154E0,6.282385349E0,1.321120453E1,7.967903137E0
5.586334462E0,5.334281445E0,1.283292103E1,6.272808552E0
5.596344078E0,4.043806553E0,1.246660805E1,4.546588898E0
5.606353924E0,2.942473888E0,1.188481712E1,3.157952070E0
5.616333231E0,2.142810583E0,1.126950741E1,2.533065319E0
5.626342847E0,1.580173135E0,1.065898609E1,2.659958124E0
5.636352693E0,1.070208192E0,9.926360130E0,2.980781078E0
5.646332001E0,5.243301988E-1,9.176975250E0,3.545812607E0
5.656341616E0,-1.149216816E-1,8.573636055E0,4.350264549E0
5.666351462E0,-6.703764796E-1,7.991845131E0,4.946420670E0
5.676330770E0,-8.259995580E-1,7.577648163E0,5.451597214E0
5.686340385E0,-1.086967587E0,7.390900612E0,5.506663799E0
5.696350232E0,-1.400607944E0,7.129932880E0,4.944026470E0
5.706329539E0,-1.553836942E0,6.883329868E0,4.182670593E0
5.716339155E0,-1.211466074E0,6.660669327E0,3.663128614E0
5.726349001E0,-8.116343617E-1,6.545747280E0,3.356670856E0
5.736328309E0,-5.434837937E-1,6.593631268E0,3.426102638E0
5.746338155E0,-2.968810201E-1,6.976703644E0,4.252102375E0
5.756347770E0,-2.561795712E-1,7.955932140E0,5.372588634E0
5.766327078E0,-2.394201756E-1,1.018972206E1,7.309497833E0
5.776336924E0,1.405396342E0,1.373074722E1,1.071644688E1
5.786346540E0,8.954314232E0,1.839944077E1,1.676659393E1
5.796356386E0,1.820311546E1,2.269703293E1,2.204820251E1
5.806335693E0,2.574245644E1,2.509123421E1,2.353979111E1
5.816345309E0,2.915658760E1,2.506011009E1,2.049436569E1
5.826355155E0,2.909194565E1,2.346796417E1,1.353921032E1
5.836334463E0,2.706884384E1,2.138500977E1,5.707777023E0
5.846344078E0,2.470576668E1,1.946007156E1,-1.963245422E-1
5.856353924E0,2.127727127E1,1.701559067E1,-3.440467834E0
5.866333232E0,1.784638023E1,1.422155857E1,-3.931279182E0
5.876342847E0,1.421437550E1,1.101572227E1,-3.440467834E0
5.886352694E0,1.055124664E1,7.984662533E0,-2.731784105E0
5.896332001E0,6.636727333E0,5.451597214E0,-2.262520552E0
5.906341617E0,3.531447411E0,3.450044632E0,-1.927332401E0
5.916351463E0,2.422932148E0,1.817199111E0,-1.446097851E0
5.926330771E0,2.511517525E0,4.692635238E-1,-7.709329724E-1
5.936340386E0,3.979163170E0,-9.648633003E-1,-5.027823448E-1
5.946350232E0,5.104437828E0,-2.734178305E0,-6.895300746E-1
5.956329540E0,5.310339451E0,-3.926490784E0,-1.534683347E0
5.966339155E0,5.264849663E0,-4.991910458E0,-3.124433279E0
5.976349002E0,5.365406036E0,-6.442796707E0,-4.632780075E0
5.986328309E0,6.062118530E0,-7.659051418E0,-5.418078423E0
5.996338155E0,7.034164429E0,-8.686163902E0,-5.820304394E0
6.006347771E0,7.615955830E0,-9.337387085E0,-6.121973515E0
6.016327079E0,7.113173485E0,-9.660603523E0,-6.270414352E0
6.026336925E0,5.707777023E0,-9.751583099E0,-6.751648903E0
6.036346540E0,3.560178041E0,-9.933543205E0,-7.908048153E0
6.046356386E0,1.197100878E0,-1.016578007E1,-9.105149269E0
6.056335694E0,-1.283292055E0,-1.020648193E1,-9.888052940E0
6.066345309E0,-3.502717018E0,-1.012747288E1,-1.009395409E1
6.076355156E0,-4.417302132E0,-1.026394272E1,-9.016563416E0
6.086334463E0,-2.758120298E0,-1.039562416E1,-7.256825447E0
6.096344079E0,-4.788403399E-3,-1.004367638E1,-5.049371243E0
6.106353925E0,3.294421434E0,-9.387664795E0,-2.865859509E0
6.116333233E0,4.668693542E0,-8.087613106E0,-2.370259762E0
6.126343079E0,2.985569477E0,-6.852205276E0,-4.896142483E0
6.136352694E0,8.355764151E-1,-5.947196960E0,-8.039729118E0
6.146332002E0,3.351882398E-1,-4.472368717E0,-8.717288017E0
6.156341617E0,3.610456228E0,-2.418143749E0,-4.625597477E0
6.166351464E0,1.284010410E1,8.116343617E-1,1.144428372E0
6.176330771E0,2.706405640E1,5.336675644E0,6.761225700E0
6.186340387E0,4.111323166E1,1.122401714E1,1.152808094E1
6.196350233E0,4.912662506E1,1.726219368E1,1.413057804E1
6.206329541E0,4.524322891E1,2.215833664E1,1.347935581E1
6.216339156E0,3.341587448E1,2.431311798E1,9.734824181E0
6.226349002E0,2.521094322E1,2.500743675E1,5.868188381E0
6.236328310E0,2.331713104E1,2.514869499E1,3.239354849E0
6.246338156E0,2.333149529E1,2.537614441E1,2.561795712E0
6.256347771E0,2.164118958E1,2.506489754E1,3.021482468E0
6.266327079E0,1.797087860E1,2.352542496E1,3.495534420E0
6.276336925E0,1.409705925E1,2.140655708E1,3.766079187E0
6.286346541E0,1.044111347E1,1.899798965E1,3.892971992E0
6.296356387E0,7.742848396E0,1.709938812E1,3.801992416E0
6.306335695E0,5.444414616E0,1.522472858E1,3.351882458E0
6.316345310E0,4.364629745E0,1.370919895E1,2.889801502E0
6.326355156E0,3.524264812E0,1.255998230E1,2.463633537E0
6.336334464E0,2.449268341E0,1.139879417E1,2.121262789E0
6.346344079E0,1.283292055E0,1.025915432E1,1.812410712E0
6.356353926E0,6.057330370E-1,9.208099365E0,1.776497602E0
6.366333233E0,1.915361285E-1,8.650250435E0,2.111685991E0
6.376342849E0,-4.141969085E-1,8.185775757E0,2.315192938E0
6.386352695E0,-1.113303781E0,7.797914982E0,2.389413357E0
6.396332003E0,-1.300051570E0,7.584830761E0,2.640804529E0
6.406341618E0,-9.935936928E-1,7.781155586E0,3.330334663E0
6.416351464E0,-5.219359994E-1,7.769184589E0,3.976768970E0
6.426330772E0,-1.556231081E-1,7.376535416E0,4.228160381E0
6.436340387E0,3.303998411E-1,6.952761650E0,4.295197964E0
6.446350233E0,6.991068721E-1,6.502651691E0,4.206612587E0
6.456329541E0,1.027112484E0,6.095637321E0,3.969586372E0
6.466339157E0,1.168370485E0,6.086060524E0,4.127603531E0
6.476349003E0,1.345541358E0,6.392518520E0,4.594472885E0
6.486328310E0,1.922544003E0,7.237671852E0,5.025429249E0
6.496338157E0,2.578555346E0,9.349357605E0,5.422866821E0
6.506347772E0,3.931279182E0,1.358948898E1,5.252878666E0
6.516327080E0,6.806715488E0,1.896686554E1,4.793191910E0
6.526336926E0,1.343865395E1,2.477759361E1,5.738901615E0
6.536346541E0,2.369301987E1,2.968331337E1,8.908824921E0
6.546356387E0,3.175429726E1,3.113659286E1,1.311783123E1
6.556335695E0,3.386598206E1,2.840720367E1,1.739387512E1
6.566345311E0,3.128503418E1,2.215594292E1,2.046324158E1
6.576355157E0,2.621650887E1,1.587834549E1,2.393004608E1
6.586334465E0,2.250549507E1,1.097502041E1,2.499067688E1
6.596344080E0,1.951992607E1,6.770802498E0,2.252943802E1
6.606353926E0,1.764287186E1,3.213018656E0,1.646731949E1
6.616333234E0,1.527021885E1,2.896983922E-1,9.493009567E0
6.626342849E0,1.198058510E1,-2.157175779E0,2.748543501E0
6.636352695E0,7.481880188E0,-3.830722809E0,-2.980781078E0
6.646332003E0,2.746149302E0,-4.149151325E0,-7.702147007E0
6.656341619E0,-3.806780577E-1,-4.197035789E0,-1.141794777E1
6.666351465E0,-1.204283476E0,-4.022258759E0,-1.248815632E1
6.676330772E0,-2.777273953E-1,-3.931279182E0,-1.196143150E1
6.686340388E0,8.738836050E-1,-4.266467571E0,-1.072362900E1
6.696350234E0,1.221042871E0,-5.037400246E0,-9.090784073E0
6.706329542E0,1.122880578E0,-6.016628742E0,-7.024587631E0
6.716339157E0,1.185129881E0,-7.091625214E0,-4.831499100E0
6.726349003E0,1.845929503E0,-8.303091049E0,-2.636016130E0
6.736328311E0,2.901772499E0,-9.198522568E0,-1.036689281E0
6.746338157E0,3.612850428E0,-9.806650162E0,-1.244984865E-1
6.756347773E0,3.284844637E0,-9.797073364E0,-9.097966552E-2
6.766327080E0,1.905784607E0,-9.837775230E0,-1.134851575E0
6.776336927E0,6.296750307E-1,-9.995792389E0,-2.272097349E0
6.786346542E0,-3.806780577E-1,-9.890447617E0,-3.002328873E0
6.796356388E0,-2.090138197E0,-9.751583099E0,-3.651157618E0
6.806335696E0,-3.090914488E0,-9.789890289E0,-3.876212597E0
6.816345311E0,-2.080561161E0,-9.765948296E0,-3.462015629E0
6.826355157E0,-1.412578970E-1,-9.478644371E0,-2.806004286E0
6.836334465E0,2.152387381E0,-8.817844391E0,-2.525882721E0
6.846344081E0,3.469198227E0,-7.661445618E0,-2.638410330E0
6.856353927E0,2.851494312E0,-6.497863293E0,-4.055777550E0
6.866333234E0,-1.316810995E-1,-5.413290024E0,-5.954379559E0
6.876342850E0,-4.165911078E-1,-4.443638325E0,-5.667075634E0
6.886352696E0,1.862688899E0,-2.365471363E0,-3.430891037E0
6.896332004E0,9.253589630E0,7.757213712E-1,-6.991068721E-1
6.906341619E0,2.244564056E1,4.747702122E0,6.368576288E-1
6.916351465E0,3.704308701E1,1.043393135E1,2.825157940E-1
6.926330773E0,4.677552032E1,1.716882133E1,-1.845929503E0
6.936340388E0,4.822879791E1,2.311122894E1,-5.114014626E0
6.946350235E0,4.227681351E1,2.578794670E1,-7.429207802E0
6.956329542E0,3.468240738E1,2.643916893E1,-8.949525833E0
6.966339158E0,2.801215935E1,2.571611977E1,-9.643844604E0
6.976349004E0,2.376963425E1,2.462197113E1,-8.971074104E0
6.986328312E0,2.076969910E1,2.343923378E1,-7.249642849E0
6.996338158E0,1.753992081E1,2.185666656E1,-4.774038315E0
7.006347773E0,1.428620148E1,1.997721863E1,-1.853112102E0
7.016327081E0,1.091755962E1,1.809058762E1,9.361328483E-1
7.026336927E0,8.619126320E0,1.663012505E1,2.257732153E0
7.036346543E0,6.897695065E0,1.553597450E1,2.513911724E0
7.046356389E0,5.451597214E0,1.465969658E1,1.910573006E0
7.056335696E0,4.469974518E0,1.390312958E1,1.012747288E0
7.066345312E0,4.012681961E0,1.321838760E1,3.495534360E-1
7.076355158E0,3.605667830E0,1.257195282E1,2.609679997E-1
7.086334466E0,3.394978046E0,1.188242340E1,6.416460276E-1
7.096344081E0,2.920926094E0,1.120007515E1,1.357512355E0
7.106353927E0,2.070984364E0,1.058716011E1,2.286462545E0
7.116333235E0,9.481038451E-1,1.008437729E1,3.320757866E0
7.126342850E0,9.816227108E-2,9.615114212E0,4.426878929E0
7.136352697E0,-3.782838583E-1,9.174580574E0,5.741295815E0
7.146332004E0,-4.046200812E-1,8.729259491E0,7.024587631E0
7.156341620E0,-2.681505978E-1,8.042123795E0,7.941566944E0
7.166351466E0,-1.963245422E-1,7.343016624E0,8.269572258E0
7.176330774E0,-3.663128614E-1,6.572083473E0,8.008605003E0
7.186340389E0,-3.591302633E-1,5.887341976E0,7.311892033E0
7.196350235E0,-2.394201607E-2,5.571307182E0,6.555324078E0
7.206329543E0,7.374141216E-1,5.667075634E0,5.930437565E0
7.216339158E0,1.386242747E0,6.155492783E0,5.090072632E0
7.226349004E0,1.831564307E0,7.304709435E0,4.129997730E0
7.236328312E0,1.403002143E0,1.006043530E1,4.345476151E0
7.246338158E0,7.134721279E-1,1.509065342E1,6.160281181E0
7.256347774E0,4.431667328E0,2.117910767E1,1.045787334E1
7.266327082E0,1.848323631E1,2.694673920E1,1.436999893E1
7.276336928E0,3.488591385E1,3.154839516E1,1.489432907E1
7.286346543E0,4.169023514E1,3.308308029E1,1.156638813E1
7.296356389E0,3.986824799E1,2.777992249E1,4.716577530E0
7.306335697E0,3.236721420E1,2.389413261E1,-1.623268723E0
7.316345312E0,2.850297165E1,1.997243118E1,-5.453991413E0
7.326355159E0,2.442803955E1,1.592622948E1,-7.838616371E0
7.336334466E0,1.958935738E1,1.172679996E1,-8.678980827E0
7.346344082E0,1.407072353E1,7.474697590E0,-8.518569946E0
7.356353928E0,8.901641846E0,3.806780815E0,-7.137115479E0
7.366333236E0,5.013458252E0,1.165976286E0,-4.872200489E0
7.376342851E0,3.579331636E0,-8.954314590E-1,-2.219424963E0
7.386352697E0,3.409343243E0,-2.051830769E0,-5.578489900E-1
7.396332005E0,3.778050184E0,-3.301604033E0,3.351882398E-1
7.406341851E0,3.670311213E0,-4.771644115E0,4.620809257E-1
7.416351466E0,3.387795448E0,-5.978321552E0,-8.858546615E-2
7.426330774E0,3.605667830E0,-7.343016624E0,-8.379706144E-1
7.436340390E0,4.431667328E0,-8.741230011E0,-1.338358760E0
7.446350236E0,5.738901615E0,-1.018014526E1,-1.843535304E0
7.456329544E0,6.533776283E0,-1.131260300E1,-2.454056740E0
7.466339390E0,6.375759125E0,-1.198776817E1,-3.450044632E0
7.476349005E0,4.730942726E0,-1.236605167E1,-4.618414879E0
7.486328313E0,2.676717520E0,-1.271321106E1,-5.499481201E0
7.496338159E0,-9.576806799E-3,-1.274194145E1,-6.217741966E0
7.506347774E0,-3.438073635E0,-1.279461384E1,-6.648698330E0
7.516327082E0,-5.865794182E0,-1.280419064E1,-6.256049156E0
7.526336928E0,-6.464344501E0,-1.237323475E1,-5.240907669E0
7.536346544E0,-5.003881454E0,-1.175313568E1,-4.113238335E0
7.546356390E0,-2.394201756E0,-1.098220348E1,-3.311181068E0
7.556335698E0,1.182735682E0,-9.746794701E0,-2.396595955E0
7.566345313E0,3.627215624E0,-7.967903137E0,-2.360682964E0
7.576355159E0,2.054224968E0,-6.476315498E0,-4.709394932E0
7.586334467E0,-7.302315235E-1,-5.355829239E0,-7.058106422E0
7.596344082E0,-1.060631394E0,-3.270479441E0,-7.967903137E0
7.606353928E0,3.244143248E0,-1.326387763E0,-6.488286495E0
7.616333236E0,1.144428444E1,1.592144132E0,-2.260126352E0
7.626342852E0,2.184708977E1,6.121973515E0,3.043030262E0
7.636352698E0,3.276225662E1,1.094150162E1,7.151480675E0
7.646332006E0,4.106774139E1,1.601960373E1,8.477868080E0
7.656341852E0,4.416104889E1,2.081279564E1,5.930437565E0
7.666351467E0,4.152503586E1,2.422932053E1,2.992752194E-1
7.676330775E0,3.645650864E1,2.571851540E1,-4.546588898E0
7.686340390E0,2.975513840E1,2.563232422E1,-6.682217121E0
7.696350236E0,2.354458046E1,2.395638275E1,-6.054935932E0
7.706329544E0,1.906502724E1,2.180878258E1,-3.059789658E0
7.716339160E0,1.607467079E1,1.986708641E1,7.972691655E-1
7.726349006E0,1.360385418E1,1.811453056E1,3.584120035E0
7.736328313E0,1.086967564E1,1.646253014E1,4.769249916E0
7.746338160E0,8.623914719E0,1.516247940E1,4.541800499E0
7.756347775E0,6.564900875E0,1.417606831E1,3.785232782E0
7.766327083E0,5.102043629E0,1.326148319E1,2.528276920E0
7.776336929E0,3.931279182E0,1.262462521E1,1.144428372E0
7.786346544E0,3.303998232E0,1.214817905E1,1.388636976E-1
7.796356390E0,2.839523315E0,1.184411621E1,-9.337386489E-2
7.806335698E0,2.365471363E0,1.122880554E1,3.184288144E-1
7.816345314E0,1.723825216E0,1.060391903E1,1.175553083E0
7.826355160E0,1.096544385E0,1.005564690E1,2.272097349E0
7.836334467E0,4.237737060E-1,9.583989143E0,3.258508444E0
7.846344083E0,-3.591302633E-1,9.399636269E0,4.230554581E0
7.856353929E0,-9.217676520E-1,9.526528358E0,5.183446884E0
7.866333237E0,-1.321599364E0,9.967061996E0,6.215347767E0
7.876342852E0,-1.484405041E0,1.023521233E1,7.216124058E0
7.886352698E0,-1.331176162E0,9.933543205E0,8.209717751E0
7.896332006E0,-2.202665508E-1,9.081207275E0,9.253589630E0
7.906341622E0,8.762778044E-1,7.888894558E0,1.052730465E1
7.916351468E0,1.668758631E0,6.593631268E0,1.137485218E1
7.926330775E0,2.032677174E0,5.511452198E0,1.149216843E1
7.936340391E0,2.188300371E0,5.279214859E0,1.112346077E1
7.946350237E0,2.825158119E0,6.464344501E0,1.045308495E1
7.956329545E0,4.951209068E0,9.624691010E0,1.097262669E1
7.966339160E0,1.079306126E1,1.348653793E1,1.208832455E1
7.976349006E0,1.912009430E1,1.722388649E1,1.228225517E1
7.986328314E0,2.577597618E1,2.047760773E1,9.911994934E0
7.996338160E0,2.887407303E1,2.312080574E1,4.589684486E0
8.006347776E0,2.988921356E1,2.471294975E1,-2.070984364E0
8.016327083E0,3.009990311E1,2.322136307E1,-8.664615631E0
8.026336929E0,2.721010208E1,2.174414062E1,-1.162624359E1
8.036346545E0,2.558683395E1,1.938585091E1,-1.112585545E1
8.046356391E0,2.268266678E1,1.619437981E1,-8.887276649E0
8.056335699E0,1.850478554E1,1.251449203E1,-6.174646378E0
8.066345314E0,1.421437550E1,8.777143478E0,-4.443638325E0
8.076355160E0,1.018732834E1,5.784391403E0,-3.581725836E0
8.086334468E0,6.952761650E0,3.368641853E0,-3.205836058E0
8.096344083E0,4.362235546E0,1.187524080E0,-2.803610086E0
8.106353930E0,2.504334927E0,6.224924326E-2,-2.272097349E0
8.116333237E0,1.704671621E0,-1.151610970E0,-1.924938202E0
8.126342853E0,1.134851575E0,-2.293645144E0,-1.589749932E0
8.136352699E0,8.307880163E-1,-3.196259260E0,-1.515529633E0
8.146332007E0,1.070208192E0,-4.055777550E0,-1.252167463E0
8.156341622E0,1.486799240E0,-4.805162907E0,-6.679822803E-1
8.166351468E0,2.303221941E0,-5.501875401E0,-2.753331959E-1
8.176330776E0,3.253720045E0,-5.887341976E0,-1.268926859E-1
8.186340622E0,3.940855980E0,-6.337451935E0,-3.639186621E-1
8.196350238E0,4.084507942E0,-6.938396454E0,-1.185129881E0
8.206329545E0,3.387795448E0,-7.632715225E0,-2.387019157E0
8.216339161E0,2.207453966E0,-8.176198959E0,-3.538630009E0
8.226349007E0,8.020575643E-1,-8.724471092E0,-4.838681698E0
8.236328315E0,-9.217676520E-1,-9.150638580E0,-5.901707172E0
8.246338161E0,-2.707842112E0,-9.337387085E0,-6.421248913E0
8.256347776E0,-3.464409828E0,-9.306262016E0,-6.196194172E0
8.266327084E0,-3.011905670E0,-9.026140213E0,-4.984727859E0
8.276336930E0,-1.675941229E0,-8.743624687E0,-3.284844637E0
8.286346545E0,9.409212470E-1,-8.054094315E0,-1.726219416E0
8.296356392E0,3.543418407E0,-7.139509678E0,-5.770025849E-1
8.306335699E0,5.243301868E0,-5.679046631E0,-5.003881454E-1
8.316345315E0,4.565742493E0,-4.146757126E0,-2.983175278E0
8.326355161E0,3.119644880E0,-2.937685490E0,-6.177040577E0
8.336334469E0,2.980781078E0,-1.242590666E0,-8.473079681E0
8.346344084E0,4.527435303E0,6.655880809E-1,-8.803479195E0
8.356353930E0,8.348581314E0,3.086126089E0,-7.012616634E0
8.366333238E0,1.570356941E1,6.368576527E0,-3.596091032E0
8.376342853E0,2.684618378E1,1.040280628E1,5.554547906E-1
8.386352700E0,3.826892090E1,1.675462341E1,4.922478676E0
8.396332007E0,4.314590836E1,2.211763573E1,6.227318764E0
8.406341623E0,4.234385300E1,2.528277016E1,5.006275654E0
8.416351469E0,3.676775360E1,2.668337822E1,2.578555346E0
8.426330777E0,2.976232147E1,2.611116409E1,1.939303428E-1
8.436340392E0,2.377921104E1,2.430354118E1,-8.283938169E-1
8.446350238E0,1.881842613E1,2.219664383E1,3.902548850E-1
8.456329546E0,1.477461910E1,1.966836739E1,2.743755102E0
8.466339392E0,1.133175659E1,1.761414146E1,5.286397457E0
8.476349007E0,9.270348549E0,1.598608494E1,6.584054470E0
8.486328315E0,8.027758598E0,1.476025391E1,6.883329868E0
8.496338161E0,7.031770229E0,1.389115810E1,6.148310184E0
8.506347777E0,6.098031521E0,1.300530338E1,4.750096321E0
8.516327084E0,4.944026470E0,1.204762268E1,3.272873640E0
8.526336931E0,3.452438831E0,1.105402946E1,2.238578558E0
8.536346546E0,1.912967205E0,9.732429504E0,1.546654344E0
8.546356392E0,5.075707436E-1,8.748413086E0,1.175553083E0
8.556335700E0,-7.278373241E-1,7.977479935E0,1.067813993E0
8.566345315E0,-1.690306425E0,7.422025204E0,1.115697980E0
8.576355162E0,-2.391807556E0,7.153874874E0,1.443703651E0
8.586334469E0,-2.619256735E0,7.287950039E0,1.821987510E0
8.596344085E0,-2.430114746E0,7.838616371E0,2.013523579E0
8.606353931E0,-1.996764183E0,8.676587105E0,2.023100376E0
8.616333239E0,-1.470039845E0,9.205705643E0,2.200271368E0
8.626342854E0,-5.841852427E-1,9.454702377E0,2.815581083E0
8.636352700E0,-1.628057212E-1,9.272743225E0,3.708618402E0
8.646332008E0,-7.613561153E-1,8.643068314E0,4.999093056E0
8.656341623E0,-1.630451322E0,8.080430984E0,6.485892296E0
8.666351469E0,-1.551442742E0,7.829039574E0,7.814674377E0
8.676330777E0,-9.289502501E-1,8.204929352E0,9.318233490E0
8.686340623E0,7.086837292E-1,8.920795441E0,1.112585545E1
8.696350239E0,4.577713490E0,1.064701462E1,1.321120453E1
8.706329546E0,8.046912193E0,1.318008041E1,1.436999893E1
8.716339162E0,1.150653362E1,1.601242065E1,1.434845066E1
8.726349008E0,1.450646782E1,1.901953888E1,1.304121685E1
8.736328316E0,1.628536034E1,2.201229095E1,1.038844109E1
8.746338162E0,1.925895882E1,2.449507713E1,6.387730122E0
8.756347777E0,2.445916367E1,2.489251518E1,2.360682964E0
8.766327085E0,2.681745338E1,2.327164078E1,-1.991975784E0
8.776336931E0,2.535220146E1,2.103784943E1,-5.561730385E0
8.786346547E0,2.276167488E1,1.833719063E1,-7.668628216E0
8.796356393E0,1.946485901E1,1.495418358E1,-8.779537201E0
8.806335701E0,1.625423622E1,1.139161205E1,-9.078812599E0
8.816345316E0,1.283531570E1,8.202534676E0,-8.487444878E0
8.826355162E0,9.325415611E0,5.233725071E0,-7.194576263E0
8.836334470E0,6.904877663E0,2.896984100E0,-6.143521786E0
8.846344085E0,5.343858242E0,8.930372596E-1,-5.161899090E0
8.856353931E0,3.976768970E0,-5.698199868E-1,-4.326322556E0
8.866333239E0,2.817975283E0,-2.018311977E0,-3.655946016E0
8.876342855E0,1.704671621E0,-3.294421434E0,-2.990357876E0
8.886352701E0,1.063025594E0,-4.244919777E0,-2.518700123E0
8.896332008E0,9.409212470E-1,-5.166687489E0,-2.082955360E0
8.906341624E0,1.532289028E0,-5.987898350E0,-1.611297727E0
8.916351470E0,2.446874142E0,-6.907271862E0,-1.067813993E0
8.926330778E0,3.727771997E0,-7.680599213E0,-7.086837292E-1
8.936340393E0,4.565742493E0,-8.394071579E0,-7.781155705E-1
8.946350239E0,4.378994942E0,-8.918401718E0,-1.482010841E0
8.956329547E0,3.052607059E0,-9.263166428E0,-2.858676910E0
8.966339162E0,1.113303781E0,-9.581595421E0,-4.065354347E0
8.976349009E0,-1.209071875E0,-9.679757118E0,-4.865017891E0
8.986328316E0,-3.596091032E0,-9.787496567E0,-5.035006046E0
8.996338163E0,-5.193023682E0,-9.785101891E0,-4.560954094E0
9.006347778E0,-4.699818134E0,-9.545681953E0,-3.665522814E0
9.016327086E0,-2.238578558E0,-9.217676163E0,-2.700659513E0
9.026336932E0,1.012747288E0,-8.638279915E0,-1.774103403E0
9.036346547E0,4.424484730E0,-7.359776020E0,-9.433154464E-1
9.046356393E0,6.543353081E0,-5.872976780E0,-1.142034173E0
9.056335701E0,5.767632008E0,-4.534617901E0,-2.949656487E0
9.066345317E0,2.798821688E0,-3.098097086E0,-5.516240597E0
9.076355163E0,6.584054828E-1,-1.271321058E0,-7.972691536E0
9.086334470E0,1.347935557E0,4.237737060E-1,-9.150638580E0
9.096344086E0,4.256890774E0,2.650381327E0,-7.204153061E0
9.106353932E0,1.057518864E1,5.983109951E0,-2.827552319E0
9.116333240E0,2.457887459E1,9.866505623E0,3.268085241E0
9.126342855E0,3.790021133E1,1.484883881E1,8.398859978E0
9.136352701E0,4.362953568E1,1.937148666E1,1.171722317E1
9.146332009E0,4.089535904E1,2.191173363E1,1.090080070E1
9.156341624E0,3.208230209E1,2.238339233E1,7.012616634E0
9.166351471E0,2.341768646E1,2.150471878E1,2.200271368E0
9.176330778E0,1.779849625E1,2.037705040E1,-8.212111592E-1
9.186340394E0,1.607945824E1,1.947683144E1,-1.663970232E0
9.196350240E0,1.567962646E1,1.864364815E1,-9.935936928E-1
9.206329548E0,1.403959846E1,1.739387512E1,-7.422025502E-2
9.216339163E0,1.149935055E1,1.607227516E1,1.939303428E-1
9.226349009E0,9.471462250E0,1.494221306E1,-3.902548850E-1
9.236328317E0,8.501810074E0,1.424789429E1,-1.053448796E0
9.246338163E0,8.391676903E0,1.383369732E1,-1.482010841E0
9.256347779E0,8.427590370E0,1.352723980E1,-1.462857246E0
9.266327086E0,7.967903137E0,1.300051498E1,-1.137245774E0
9.276336932E0,6.993463039E0,1.242111874E1,-7.829039693E-1
9.286346548E0,5.695806026E0,1.190157700E1,-3.351882398E-1
9.296356394E0,4.141968727E0,1.124556541E1,3.734954596E-1
9.306335702E0,2.786850691E0,1.058476543E1,1.211466074E0
9.316345317E0,1.742978811E0,9.962273598E0,2.190694571E0
9.326355163E0,8.236053586E-1,9.588777542E0,3.495534420E0
9.336334471E0,5.291185975E-1,9.344569206E0,4.556165695E0
9.346344086E0,5.075707436E-1,9.181763649E0,5.691017628E0
9.356353933E0,4.141969085E-1,8.949525833E0,6.797138691E0
9.366333240E0,2.537853718E-1,8.657433510E0,7.762001991E0
9.376342856E0,-3.351882398E-1,8.403648376E0,8.283937454E0
9.386352702E0,-6.416460276E-1,8.082824707E0,8.444349289E0
9.396332010E0,-7.613561153E-1,7.826645374E0,8.315062523E0
9.406341625E0,-3.615244627E-1,7.673416615E0,8.192957878E0
9.416351471E0,4.812345505E-1,7.730877399E0,8.197746277E0
9.426330779E0,1.924938202E0,7.896077156E0,8.192957878E0
9.436340394E0,3.837905407E0,8.681375504E0,8.269572258E0
9.446350241E0,5.949591160E0,1.083855152E1,8.609549522E0
9.456329548E0,8.161833763E0,1.372356415E1,9.923966408E0
9.466339164E0,1.227986050E1,1.715924263E1,1.200692177E1
9.476349010E0,2.014960098E1,2.027409935E1,1.317768574E1
9.486328318E0,2.577118683E1,2.240254593E1,1.163103199E1
9.496338164E0,2.862028694E1,2.349430084E1,7.838616371E0
9.506347779E0,2.917574120E1,2.193088722E1,2.339135170E0
9.516327087E0,2.683421326E1,1.946725464E1,-2.509123325E0
9.526336933E0,2.418383217E1,1.720473289E1,-5.518634796E0
9.536346548E0,2.138979721E1,1.431732655E1,-6.737283707E0
9.546356395E0,1.768596840E1,1.108994198E1,-6.380547523E0
9.556335702E0,1.449210262E1,8.236053467E0,-5.370194435E0
9.566345318E0,1.104445267E1,5.386953831E0,-4.302380562E0
9.576355164E0,7.556100368E0,3.004723072E0,-2.997540474E0
9.586334472E0,4.888959885E0,9.816226959E-1,-1.912967205E0
9.596344087E0,3.086126089E0,-4.692635238E-1,-1.108515382E0
9.606353933E0,2.334346771E0,-1.589749932E0,-5.961562395E-1
9.616333241E0,2.173935175E0,-2.533065319E0,-7.996633649E-1
9.626342856E0,2.217030764E0,-3.208230257E0,-1.924938202E0
9.636352703E0,2.245761156E0,-3.871424198E0,-2.973598480E0
9.646332010E0,2.322375536E0,-4.733336926E0,-3.634398222E0
9.656341626E0,2.363077164E0,-5.722142220E0,-3.809175014E0
9.666351472E0,2.911349297E0,-6.665457726E0,-3.684676409E0
9.676330780E0,3.739742994E0,-7.527369976E0,-3.160346270E0
9.686340395E0,4.378994942E0,-8.461109161E0,-2.367865562E0
9.696350241E0,4.204218388E0,-9.198522568E0,-1.821987510E0
9.706329549E0,3.071760893E0,-9.799467087E0,-2.336740971E0
9.716339164E0,1.697489023E0,-1.024718285E1,-3.347094059E0
9.726349010E0,-3.974374831E-1,-1.042195988E1,-4.510675907E0
9.736328318E0,-2.092532396E0,-1.043632507E1,-5.403713226E0
9.746338164E0,-2.801215887E0,-1.038604736E1,-5.815515995E0
9.756347780E0,-2.358288765E0,-1.018493366E1,-5.109226227E0
9.766327087E0,2.968810201E-1,-9.655815125E0,-3.172317266E0
9.776336934E0,3.983951569E0,-8.714894295E0,-1.271321058E0
9.786346549E0,6.641515732E0,-7.639897823E0,-3.567360640E-1
9.796356395E0,7.620744228E0,-6.840234280E0,-1.611297727E0
9.806335703E0,5.947196960E0,-5.916072369E0,-5.164293289E0
9.816345318E0,3.950432777E0,-5.243301868E0,-9.311050415E0
9.826355165E0,3.892971992E0,-4.477157116E0,-1.133175659E1
9.836334472E0,7.539340973E0,-2.645592928E0,-8.690952301E0
9.846344088E0,1.428380775E1,3.782838583E-1,-2.937685490E0
9.856353934E0,2.382470131E1,4.163516521E0,4.343081951E0
9.866333242E0,3.398090363E1,8.477868080E0,1.077869606E1
9.876342857E0,4.129279709E1,1.308670616E1,1.497094345E1
9.886352703E0,4.325843811E1,1.757104683E1,1.586637497E1
9.896332011E0,3.928645706E1,2.074336433E1,1.207156467E1
9.906341626E0,3.306871414E1,2.259408188E1,5.257667065E0
9.916351472E0,2.777273941E1,2.303461456E1,5.961562395E-1
9.926330780E0,2.387497902E1,2.277364731E1,-1.529894829E0
9.936340396E0,2.114319611E1,2.206735802E1,-1.436521053E0
9.946350242E0,1.851914978E1,2.084631348E1,4.094084799E-1
9.956329549E0,1.567723274E1,1.935472679E1,2.607285738E0
9.966339396E0,1.280658531E1,1.789186859E1,4.211400986E0
9.976349011E0,1.022802925E1,1.643858910E1,5.049371243E0
9.986328319E0,8.418013573E0,1.551921558E1,5.085284233E0
9.996338165E0,7.651868820E0,1.486559868E1,4.453215122E0
1.000634778E1,6.974309444E0,1.427423096E1,3.378218651E0
1.001632709E1,6.174646378E0,1.354639339E1,2.427720547E0
1.002633693E1,5.480327606E0,1.279461384E1,1.757344007E0
1.003634655E1,4.730942726E0,1.191833591E1,1.441309452E0
1.004635640E1,3.835511208E0,1.092713642E1,1.510741234E0
1.005633570E1,2.600103140E0,9.880870819E0,2.039859772E0
1.006634532E1,1.386242747E0,9.088389397E0,2.633621931E0
1.007635516E1,3.208230138E-1,8.542511940E0,3.359065056E0
1.008633447E1,-6.895300746E-1,8.180987358E0,4.141968727E0
1.009634409E1,-1.419761658E0,7.884106159E0,4.917690277E0
1.010635393E1,-1.508347034E0,7.513004780E0,5.808333397E0
1.011633324E1,-1.434126854E0,7.015010834E0,6.557718277E0
1.012634286E1,-1.134851575E0,6.222530365E0,6.739677906E0
1.013635270E1,-7.685387731E-1,5.415684223E0,6.677428722E0
1.014633201E1,-2.394201756E-1,4.800374508E0,6.660669327E0
1.015634163E1,4.548983276E-2,4.572925091E0,6.373364925E0
1.016635147E1,4.596867263E-1,4.766855717E0,5.839457989E0
1.017633078E1,1.108515382E0,5.528211594E0,5.504269600E0
1.018634040E1,1.833958507E0,7.055712223E0,5.422866821E0
1.019635024E1,3.045424461E0,9.856928825E0,6.572083473E0
1.020632955E1,6.636727333E0,1.349132633E1,9.234436035E0
1.021633916E1,1.455914021E1,1.779131317E1,1.366370869E1
1.022634901E1,2.394441032E1,2.148556519E1,1.808340454E1
1.023632832E1,2.928108597E1,2.388934517E1,1.901235580E1
1.024633817E1,3.064578247E1,2.460760498E1,1.570596313E1
1.025634778E1,3.132573509E1,2.232832527E1,9.306262016E0
1.026632709E1,2.966176414E1,2.010411263E1,3.639186621E0
1.027633694E1,2.799300575E1,1.779370689E1,-7.661445141E-1
1.028634655E1,2.593159866E1,1.479616642E1,-3.205836058E0
1.029635640E1,2.278082848E1,1.148259163E1,-3.761290789E0
1.030633570E1,1.903150940E1,7.778761387E0,-3.572149038E0
1.031634532E1,1.502361584E1,4.292803764E0,-3.196259260E0
1.032635517E1,1.119528675E1,1.426944256E0,-2.779668093E0
1.033633447E1,7.862558365E0,-8.571242094E-1,-2.334346771E0
1.034634409E1,4.824316502E0,-2.712630510E0,-1.821987510E0
1.035635394E1,3.107673883E0,-3.701435804E0,-1.532289028E0
1.036633324E1,2.322375536E0,-4.625597477E0,-1.651999116E0
1.037634286E1,2.025494576E0,-5.394136429E0,-1.704671621E0
1.038635270E1,2.116474390E0,-6.320692539E0,-1.520318031E0
1.039633201E1,2.820369720E0,-7.244854450E0,-1.199495077E0
1.040634163E1,3.612850428E0,-7.996633530E0,-1.371877551E0
1.041635147E1,4.450820923E0,-8.717288017E0,-2.154781580E0
1.042633078E1,4.204218388E0,-9.119514465E0,-3.179499865E0
1.043634040E1,3.208230257E0,-9.560047150E0,-4.637568474E0
1.044637062E1,1.802833915E0,-1.008437729E1,-5.963956356E0
1.045634992E1,1.436520964E-1,-1.066137981E1,-7.299921036E0
1.046635954E1,-1.489193439E0,-1.093671322E1,-8.279149055E0
1.047636938E1,-3.016694069E0,-1.090080070E1,-8.707711220E0
1.048634869E1,-4.015076160E0,-1.075954247E1,-8.497021675E0
1.049635854E1,-3.574543238E0,-1.037168217E1,-7.580042362E0
1.050636815E1,-1.860294700E0,-9.818621635E0,-5.913678169E0
1.051634746E1,6.224924326E-1,-9.361329079E0,-4.118026733E0
1.052635731E1,3.100491285E0,-8.667010307E0,-2.513911724E0
1.053636692E1,5.188235283E0,-7.733271599E0,-1.731007814E0
1.054637677E1,6.153098583E0,-6.648698330E0,-2.803610086E0
1.055635608E1,5.418078423E0,-5.262455463E0,-5.647922039E0
1.056636569E1,4.276044369E0,-4.158728123E0,-7.805097580E0
1.057637554E1,5.176264286E0,-3.272873640E0,-7.864952564E0
1.058635485E1,8.121131897E0,-2.049436569E0,-5.020640850E0
1.059636446E1,1.322317600E1,9.097966552E-2,-4.788403213E-2
1.060637431E1,2.254380226E1,2.882618904E0,6.411672115E0
1.061635362E1,3.325067139E1,6.912060261E0,1.287841129E1
1.062636323E1,4.158967590E1,1.165497398E1,1.634282112E1
1.063637308E1,4.476199341E1,1.631648445E1,1.476264763E1
1.064635238E1,3.999035263E1,1.897644234E1,9.267954826E0
1.065636200E1,3.226426315E1,2.001073837E1,3.059789658E0
1.066637185E1,2.560598755E1,2.001073837E1,-1.508347034E0
1.067635115E1,2.206496239E1,1.954147339E1,-3.450044632E0
1.068636077E1,2.063801956E1,1.867956161E1,-2.659958124E0
1.069637062E1,1.938106346E1,1.754471016E1,1.460463107E-1
1.070634992E1,1.692700577E1,1.611776543E1,3.818751812E0
1.071635954E1,1.435563374E1,1.481532001E1,6.344634533E0
1.072636938E1,1.231337929E1,1.375708294E1,7.704541206E0
1.073634869E1,1.129344940E1,1.316092682E1,8.013393402E0
1.074635854E1,1.031182671E1,1.289756489E1,7.125144482E0
1.075636815E1,8.832210541E0,1.257195282E1,5.638344765E0
1.076634746E1,7.105990410E0,1.226549530E1,4.309563160E0
1.077635731E1,4.970362663E0,1.181538582E1,3.282450438E0
1.078636692E1,3.112462282E0,1.131499767E1,3.062183857E0
1.079637677E1,1.438915253E0,1.077151299E1,3.459621429E0
1.080635608E1,2.082955539E-1,1.025436592E1,4.103661537E0
1.081636569E1,-6.919242740E-1,9.830592155E0,4.881777287E0
1.082637554E1,-1.407790542E0,9.548076630E0,5.712565422E0
1.083635485E1,-1.948880196E0,9.557653427E0,6.418854713E0
1.084636446E1,-2.293645144E0,9.746794701E0,7.000645638E0
1.085637431E1,-2.382230759E0,9.691728592E0,7.450755596E0
1.086635362E1,-2.485181332E0,9.624691010E0,7.855375767E0
1.087636323E1,-2.274491549E0,9.409213066E0,7.850587368E0
1.088637308E1,-2.226607561E0,9.088389397E0,7.347805023E0
1.089635238E1,-1.920149803E0,8.777143478E0,6.888118267E0
1.090636200E1,-1.223437071E0,8.786720276E0,6.818686485E0
1.091637185E1,3.327940404E-1,9.265560150E0,6.890512466E0
1.092635116E1,2.693476915E0,9.811438560E0,7.062894821E0
1.093636077E1,4.977545261E0,1.098220348E1,8.087613106E0
1.094637062E1,8.350975990E0,1.271799946E1,1.086009884E1
1.095634992E1,1.427662468E1,1.511220074E1,1.459026527E1
1.096635954E1,2.086067963E1,1.762611198E1,1.747048950E1
1.097636938E1,2.569457245E1,1.954865646E1,1.761414146E1
1.098634869E1,2.851733589E1,2.123656845E1,1.446337223E1
1.099635854E1,3.095942307E1,2.198356056E1,8.561665535E0
1.100636816E1,3.285562897E1,2.053746223E1,3.560178041E0
1.101634746E1,3.306392670E1,1.930923653E1,8.403648138E-1
1.102635731E1,3.252283478E1,1.705389786E1,6.224924326E-2
1.103636692E1,3.019088364E1,1.382412052E1,-2.873041928E-1
1.104637677E1,2.643916893E1,1.003170490E1,-9.097966552E-1
1.105635608E1,2.175371742E1,6.411672115E0,-1.798045516E0
1.106636569E1,1.591665268E1,3.222595453E0,-2.652775526E0
1.107637554E1,1.153765774E1,1.029506683E0,-3.239354849E0
1.108635485E1,8.437167168E0,-7.541735172E-1,-3.512293816E0
1.109636446E1,6.169857979E0,-1.996764183E0,-3.222595453E0
1.110637431E1,4.783615112E0,-3.126827478E0,-2.499546528E0
1.111635362E1,3.878606796E0,-4.189853191E0,-1.745373011E0
1.112636323E1,3.270479441E0,-5.207388878E0,-1.216254473E0
1.113637308E1,2.715024710E0,-6.438008308E0,-1.201889277E0
1.114635239E1,2.178723574E0,-7.556100368E0,-1.271321058E0
1.115636200E1,2.087743998E0,-8.626308441E0,-1.237802267E0
1.116637185E1,2.066195965E0,-9.428366661E0,-1.379060149E0
1.117635116E1,1.750161409E0,-1.023760605E1,-1.810016513E0
1.118636077E1,1.304839969E0,-1.124077702E1,-2.918531895E0
1.119637062E1,7.158663273E-1,-1.208592987E1,-4.048594952E0
1.120634992E1,-2.896983922E-1,-1.257434750E1,-4.793191910E0
1.121635954E1,-2.106897593E0,-1.300290966E1,-5.358223438E0
1.122636939E1,-3.213018656E0,-1.326148319E1,-5.770026207E0
1.123634869E1,-3.210624456E0,-1.302206326E1,-5.628767967E0
1.124635854E1,-1.788468719E0,-1.222479343E1,-4.718971729E0
1.125636816E1,3.567360640E-1,-1.104445267E1,-3.280056238E0
1.126634746E1,3.114856482E0,-9.794678688E0,-1.738190413E0
1.127635731E1,5.877765179E0,-8.154650688E0,-3.184288144E-1
1.128636693E1,8.762778282E0,-6.299144745E0,-3.112462163E-2
1.129637677E1,9.315838814E0,-4.668693542E0,-2.090138197E0
1.130635608E1,9.145850182E0,-2.971204281E0,-5.159504890E0
1.131636569E1,8.834604263E0,-1.417367458E0,-7.584830761E0
1.132637554E1,8.942343712E0,6.727706790E-1,-7.491456985E0
1.133635485E1,1.050096893E1,3.007117271E0,-5.578489780E0
1.134636446E1,1.462857246E1,4.958391666E0,-9.457096457E-1
1.135637431E1,2.465309525E1,7.108384609E0,6.945579052E0
1.136635362E1,3.496971130E1,1.007001209E1,1.482729149E1
1.137636323E1,4.105577087E1,1.372116947E1,1.982398987E1
1.138637308E1,4.064157486E1,1.539711094E1,2.031958961E1
1.139635239E1,3.595611954E1,1.710178185E1,1.682166100E1
1.140636200E1,2.841678047E1,1.799721336E1,1.106839466E1
1.141637185E1,2.066674995E1,1.727416611E1,7.472303391E0
1.142635116E1,1.503079796E1,1.572511673E1,7.062894821E0
1.143636077E1,1.183693314E1,1.445619011E1,8.389283180E0
1.144637062E1,1.085531044E1,1.344583702E1,1.019929886E1
1.145634993E1,1.073081207E1,1.281855583E1,1.173877048E1
1.146635954E1,1.042195988E1,1.242590714E1,1.222239971E1
1.147636939E1,9.849745750E0,1.255279922E1,1.126950741E1
1.148634869E1,9.318233490E0,1.287122822E1,9.085995674E0
1.149635854E1,8.547300339E0,1.286643982E1,6.734889507E0
1.150636816E1,6.799532890E0,1.257434750E1,4.754884720E0
1.151634746E1,5.039794445E0,1.227507210E1,4.125209332E0
1.152635731E1,3.485957623E0,1.182496262E1,4.343081951E0
1.153636693E1,2.248155355E0,1.130542088E1,5.525817394E0
1.154637677E1,1.211466074E0,1.101811600E1,7.228095055E0
1.155635608E1,2.178723514E-1,1.082179165E1,8.844181061E0
1.156636570E1,-9.002198577E-1,1.062786102E1,9.998186111E0
1.157637554E1,-1.860294700E0,1.030224991E1,1.067335129E1
1.158635485E1,-2.715024710E0,9.880870819E0,1.065419769E1
1.159636446E1,-3.023876667E0,9.186552048E0,1.032858658E1
1.160637431E1,-3.588908434E0,8.305485725E0,1.004128170E1
1.161635362E1,-3.397372246E0,7.613561630E0,9.837775230E0
1.162636323E1,-2.928108692E0,7.105990410E0,9.727641106E0
1.163637308E1,-2.403778553E0,6.540958881E0,9.442731857E0
1.164635239E1,-1.137245774E0,6.260837555E0,9.224859238E0
1.165636200E1,7.661445439E-2,6.428431511E0,9.191340446E0
1.166637185E1,1.058237195E0,6.971915245E0,9.461885452E0
1.167635116E1,1.860294700E0,8.461109161E0,1.046745014E1
1.168636077E1,4.431667328E0,1.096783829E1,1.299093819E1
1.169637062E1,1.236605167E1,1.456871700E1,1.763808441E1
1.170634993E1,2.312080574E1,1.886152077E1,2.136824989E1
1.171635954E1,3.292506027E1,2.189736938E1,2.055661583E1
1.172636939E1,3.713406754E1,2.308968163E1,1.595495987E1
1.173634870E1,3.755305481E1,2.211284637E1,1.037647057E1
1.174635854E1,3.531926346E1,1.996764183E1,6.732495308E0
1.175636816E1,3.239833832E1,1.743218231E1,5.834669590E0
1.176634746E1,2.890519714E1,1.410424232E1,6.131550789E0
1.177635731E1,2.464351845E1,1.010592556E1,6.339846134E0
1.178636693E1,1.980244255E1,5.987898350E0,5.899312973E0
1.179637677E1,1.448013210E1,3.093308687E0,4.790797710E0
1.180635608E1,1.070687008E1,9.121908545E-1,3.095702887E0
1.181636570E1,8.022970200E0,-5.674257874E-1,1.561019540E0
1.182637554E1,6.493074894E0,-1.733402014E0,3.088520169E-1
1.183635485E1,5.884947777E0,-3.086126089E0,-4.716577232E-1
1.184636446E1,4.654327869E0,-4.237737179E0,-1.122880578E0
1.185637431E1,3.335123062E0,-5.513846397E0,-1.666364431E0
1.186635362E1,2.011129379E0,-6.794744492E0,-2.245761156E0
1.187636346E1,1.352723956E0,-7.869740963E0,-1.920149803E0
1.188637308E1,1.833958507E0,-8.736441612E0,-1.393425345E0
1.189635239E1,2.961627483E0,-9.361329079E0,-8.068459630E-1
1.190636200E1,4.529829502E0,-9.770736694E0,-7.733271718E-1
1.191637185E1,6.167463779E0,-1.010831928E1,-1.728613615E0
1.192635116E1,6.794744492E0,-1.006522369E1,-3.351882458E0
1.193636100E1,6.246472359E0,-9.955090523E0,-5.813121796E0
1.194637062E1,4.007893562E0,-1.007240677E1,-8.154650688E0
1.195634993E1,1.185129881E0,-1.027591324E1,-1.032140350E1
1.196635954E1,-2.205059767E0,-1.032619190E1,-1.122162342E1
1.197636939E1,-4.599261284E0,-1.043393135E1,-1.080982113E1
1.198634870E1,-5.039794445E0,-1.073560047E1,-9.311050415E0
1.199635854E1,-3.778050184E0,-1.058955383E1,-6.521805286E0
1.200636816E1,-9.552865028E-1,-9.871294022E0,-3.052607059E0
1.201634746E1,2.140416384E0,-8.887276649E0,-7.661445439E-2
1.202635731E1,4.752490520E0,-7.484274387E0,1.077390790E0
1.203636693E1,5.425261021E0,-5.755661011E0,-1.259350061E0
1.204637677E1,4.704606533E0,-4.043806553E0,-5.365406036E0
1.205635608E1,4.678270340E0,-2.341529369E0,-8.470685959E0
1.206636570E1,6.323086739E0,-3.926490843E-1,-8.681375504E0
1.207637554E1,1.013226128E1,2.396595955E0,-4.829104900E0
1.208635485E1,1.849041939E1,4.972756863E0,1.350329757E0
1.209636446E1,2.838805008E1,8.164227486E0,1.047702694E1
1.210637431E1,3.765361023E1,1.268208599E1,1.868195534E1
1.211635362E1,4.250665665E1,1.704432106E1,2.187821579E1
1.212636346E1,3.982754517E1,2.064999008E1,1.722628212E1
1.213637308E1,3.383725357E1,2.239296913E1,7.867346764E0
1.214635239E1,2.862028694E1,2.255337906E1,-1.436521020E-2
1.215636200E1,2.413355255E1,2.173935127E1,-3.636792421E0
1.216637185E1,2.040338707E1,2.021185112E1,-3.253720045E0
1.217635116E1,1.670913315E1,1.819593239E1,-1.127668977E0
1.218636077E1,1.359427738E1,1.618480301E1,1.630451322E0
1.219637062E1,1.098220348E1,1.455195808E1,4.259284973E0
1.220634993E1,8.995016098E0,1.333330917E1,6.299144745E0
1.221635954E1,7.929595947E0,1.249055004E1,7.211335659E0
1.222636939E1,6.816292286E0,1.200452709E1,7.058106422E0
1.223634870E1,5.427655220E0,1.160469532E1,6.153098583E0
1.224635854E1,3.888183594E0,1.133175659E1,5.099649429E0
1.225636816E1,2.513911724E0,1.112585545E1,4.321534157E0
1.226634746E1,1.628057122E0,1.106360626E1,3.926490784E0
1.227635731E1,1.039083481E0,1.090080070E1,4.177882195E0
1.228636693E1,5.578489900E-1,1.091516590E1,4.817133904E0
1.229637677E1,-4.788403399E-3,1.096304989E1,5.839457989E0
1.230635608E1,-7.637503147E-1,1.115937424E1,6.907271862E0
1.231636570E1,-1.276109457E0,1.152568722E1,7.941566944E0
1.232637554E1,-1.383848548E0,1.219366932E1,8.777143478E0
1.233635485E1,-1.142034173E0,1.270363426E1,9.045293808E0
1.234636447E1,-3.615244627E-1,1.269645119E1,8.726864815E0
1.235637431E1,2.585737705E-1,1.235408115E1,8.722076416E0
1.236635362E1,9.193734527E-1,1.141076565E1,8.774748802E0
1.237636324E1,2.047042370E0,1.032379818E1,9.186552048E0
1.238637308E1,3.323152065E0,9.473855972E0,9.576807022E0
1.239635239E1,4.417302132E0,9.251194954E0,9.866505623E0
1.240636200E1,5.635950565E0,1.003888798E1,1.023281765E1
1.241637185E1,8.662221909E0,1.195185471E1,1.147780323E1
1.242635116E1,1.435563374E1,1.463575459E1,1.378102493E1
1.243636077E1,2.225649834E1,1.728374290E1,1.549527359E1
1.244637062E1,2.870647812E1,1.979525948E1,1.504755783E1
1.245634993E1,3.056437874E1,2.061647034E1,1.165736771E1
1.246635954E1,3.067211723E1,1.926614189E1,6.260837555E0
1.247636939E1,2.854606628E1,1.677377701E1,1.537077546E0
1.248634870E1,2.566823578E1,1.457829380E1,-1.845929503E0
1.249635854E1,2.306334496E1,1.185129833E1,-4.122815132E0
1.250636816E1,1.964682007E1,9.452308655E0,-5.039794445E0
1.251634747E1,1.577539539E1,6.789956093E0,-4.855441093E0
1.252635731E1,1.241872406E1,4.343081951E0,-4.211400986E0
1.253636693E1,9.404424667E0,2.272097349E0,-3.426102638E0
1.254637677E1,6.495469093E0,6.871358752E-1,-2.784456491E0
1.255635608E1,4.194641590E0,-6.727706790E-1,-2.054224968E0
1.256636570E1,2.822763920E0,-1.798045516E0,-1.333570361E0
1.257637554E1,2.355894566E0,-2.568978310E0,-7.924807668E-1
1.258635485E1,2.339135170E0,-3.347094059E0,-6.368576288E-1
1.259636447E1,2.267308950E0,-4.094084740E0,-8.906430602E-1
1.260637431E1,1.764526606E0,-4.975151062E0,-1.479616642E0
1.261635362E1,1.367089152E0,-5.851428986E0,-1.766920805E0
1.262636324E1,1.642422318E0,-6.892906666E0,-1.738190413E0
1.263637308E1,2.408566952E0,-7.936778545E0,-1.326387763E0
1.264635239E1,3.394978046E0,-8.913613319E0,-8.690952063E-1
1.265636200E1,4.103661537E0,-1.011310768E1,-1.120486379E0
1.266637185E1,3.916913986E0,-1.117852783E1,-2.319981337E0
1.267635116E1,2.600103140E0,-1.193030739E1,-3.895366192E0
1.268636077E1,3.064578176E-1,-1.259110641E1,-5.389348030E0
1.269637062E1,-2.631227732E0,-1.312022495E1,-7.019799232E0
1.270634993E1,-4.750096321E0,-1.364216137E1,-8.142680168E0
1.271635954E1,-5.202600479E0,-1.369962215E1,-7.850587368E0
1.272636939E1,-3.651157618E0,-1.386003399E1,-6.155492783E0
1.273634870E1,5.363011956E-1,-1.366849709E1,-3.375824451E0
1.274635854E1,4.963180065E0,-1.261983681E1,-1.221042871E0
1.275636816E1,7.970297337E0,-1.119049835E1,-1.058237195E0
1.276634747E1,7.754819393E0,-9.706093788E0,-3.864241600E0
1.277635731E1,6.315904140E0,-8.243236542E0,-7.041347027E0
1.278636693E1,8.528146744E0,-6.619967937E0,-7.584830761E0
1.279637677E1,1.492545319E1,-4.290409565E0,-4.194641590E0
1.280635608E1,2.443282890E1,2.250549644E-1,1.826775908E0
1.281636570E1,3.241988373E1,5.267243862E0,6.366182327E0
1.282637554E1,3.950672150E1,1.008916569E1,8.056488991E0
1.283635485E1,4.479790878E1,1.441309452E1,8.010998726E0
1.284636447E1,4.563587952E1,1.797087860E1,6.895300865E0
1.285637431E1,4.167826462E1,2.027888870E1,4.695029736E0
1.286635362E1,3.510139084E1,2.126290512E1,1.838746905E0
1.287636324E1,2.905124283E1,2.138261604E1,-9.864110947E-1
1.288637308E1,2.625002670E1,2.111446571E1,-1.977610588E0
1.289635239E1,2.424847412E1,2.093250465E1,-2.039859772E0
1.290636200E1,2.205299187E1,2.027649498E1,-1.841141105E0
1.291637185E1,1.980723000E1,1.923741150E1,-1.307234168E0
1.292635116E1,1.716642570E1,1.787032127E1,-3.663128614E-1
1.293636078E1,1.433648014E1,1.643379974E1,3.758896589E-1
1.294637062E1,1.150892735E1,1.497094345E1,6.607996821E-1
1.295634993E1,8.887276649E0,1.371398735E1,8.930372596E-1
1.296635978E1,6.272808552E0,1.264138508E1,1.084573388E0
1.297636939E1,3.933673382E0,1.183932781E1,1.276109457E0
1.298634870E1,2.212242365E0,1.128147888E1,1.572990537E0
1.299635854E1,1.192312479E0,1.088164711E1,1.848323703E0
1.300636816E1,4.644751251E-1,1.067335129E1,2.375048161E0
1.301634747E1,-1.723825186E-1,1.064222622E1,2.913743496E0
1.302635731E1,-6.823474765E-1,1.074757099E1,3.224989653E0
1.303636693E1,-8.307880163E-1,1.094868469E1,3.739742994E0
1.304637678E1,-6.847416759E-1,1.110191345E1,4.043806553E0
1.305635608E1,-1.173158810E-1,1.118810463E1,4.288015366E0
1.306636570E1,3.615244627E-1,1.103248119E1,4.903325081E0
1.307637554E1,1.127668977E0,1.052491093E1,5.664681435E0
1.308635485E1,2.188300371E0,9.983820915E0,6.502651691E0
1.309636447E1,3.167528868E0,9.109937668E0,7.826645374E0
1.310637431E1,3.813963413E0,8.090007782E0,9.124302864E0
1.311635362E1,5.049371243E0,7.352593422E0,1.094150162E1
1.312636324E1,7.740454197E0,6.854599476E0,1.246900272E1
1.313637308E1,1.125753593E1,6.718130112E0,1.264138508E1
1.314635239E1,1.416170311E1,7.156269073E0,1.142273617E1
1.315636224E1,1.479856110E1,8.626308441E0,9.813833237E0
1.316637185E1,1.470518684E1,1.108994198E1,8.192957878E0
1.317635116E1,1.385763931E1,1.373792934E1,6.327875137E0
1.318636078E1,1.671870995E1,1.632606125E1,5.645527840E0
1.319637062E1,2.647268867E1,1.935233307E1,7.405265808E0
1.320634993E1,3.388992691E1,2.214875984E1,9.066842079E0
1.321635978E1,3.530489731E1,1.953907967E1,5.252878666E0
1.322636939E1,3.064578247E1,1.603157425E1,1.137245774E0
1.323634870E1,2.613510513E1,1.286404610E1,-2.952050686E0
1.324635855E1,2.240733337E1,1.008677197E1,-6.471527100E0
1.325636816E1,1.891658783E1,7.374141216E0,-8.614337921E0
1.326634747E1,1.426704788E1,4.436455727E0,-8.822632790E0
1.327635731E1,9.349357605E0,1.771709204E0,-7.314286232E0
1.328636693E1,5.310339451E0,-3.591302633E-1,-5.279214859E0
1.329637678E1,2.659958124E0,-1.759738207E0,-3.323152065E0
1.330635608E1,1.465251446E0,-2.839523315E0,-1.774103403E0
1.331636570E1,1.230619669E0,-3.641580820E0,-6.488286853E-1
1.332637555E1,1.381454349E0,-4.249708176E0,-2.681505978E-1
1.333635485E1,1.307234168E0,-4.867412090E0,-7.924807668E-1
1.334636447E1,1.094150186E0,-5.509057999E0,-1.738190413E0
1.335637431E1,1.084573388E0,-6.093243122E0,-2.449268341E0
1.336635362E1,1.407790542E0,-6.708553314E0,-2.705447912E0
1.337636347E1,2.044648170E0,-7.489062786E0,-2.983175278E0
1.338637308E1,2.760514498E0,-8.180987358E0,-3.402160645E0
1.339635239E1,2.944868088E0,-8.422801971E0,-3.921702385E0
1.340636201E1,2.602497339E0,-8.789113998E0,-4.687847137E0
1.341637185E1,1.520318031E0,-9.270348549E0,-5.173870087E0
1.342635116E1,6.464344263E-2,-9.758766174E0,-5.760449409E0
1.343636078E1,-1.764526606E0,-1.025915432E1,-6.193799973E0
1.344637062E1,-3.277662039E0,-1.081221485E1,-6.198588371E0
1.345634993E1,-3.634398222E0,-1.129105568E1,-5.544970989E0
1.346635955E1,-1.857900500E0,-1.140597725E1,-4.326322556E0
1.347636939E1,1.185129881E0,-1.122880554E1,-2.772485495E0
1.348634870E1,4.450820923E0,-1.063743782E1,-1.541865945E0
1.349635855E1,6.162675381E0,-9.770736694E0,-1.517923832E0
1.350636816E1,4.762067318E0,-9.244012833E0,-3.928884983E0
1.351634747E1,9.481038451E-1,-9.090784073E0,-7.223306656E0
1.352635732E1,-9.816227108E-2,-8.511386871E0,-8.791508675E0
1.353636693E1,4.922478676E0,-7.108384609E0,-6.296750546E0
1.354637678E1,1.441788292E1,-3.179499865E0,-8.164227605E-1
1.355635608E1,2.740403175E1,3.603273630E0,4.814739704E0
1.356636570E1,4.081634903E1,1.175792408E1,8.070854187E0
1.357637555E1,5.077622986E1,1.931163025E1,9.311050415E0
1.358635485E1,5.477215195E1,2.499785995E1,9.495404243E0
1.359636447E1,5.155434418E1,2.837129021E1,1.086009884E1
1.360637432E1,4.156573486E1,2.896026421E1,1.062067890E1
1.361635362E1,3.167289352E1,2.695871162E1,7.613561630E0
1.362636324E1,2.285504913E1,2.429875374E1,5.070919037E0
1.363637308E1,1.622311020E1,2.157893944E1,4.108449936E0
1.364635239E1,1.167173290E1,1.906023979E1,4.161122322E0
1.365636201E1,9.217676163E0,1.705868721E1,4.714183331E0
1.366637185E1,7.778761387E0,1.552400398E1,5.310339451E0
1.367635116E1,6.296750546E0,1.411621284E1,5.169081688E0
1.368636078E1,4.797980309E0,1.303882217E1,4.237737179E0
1.369637062E1,3.402160645E0,1.205241108E1,2.839523315E0
1.370634993E1,2.394201756E0,1.112106705E1,1.484405041E0
1.371635955E1,1.635239720E0,1.021845245E1,5.195417404E-1
1.372636939E1,1.015141487E0,9.373299599E0,-3.112462163E-2
1.373634870E1,3.016694188E-1,8.650250435E0,-2.777273953E-1
1.374635855E1,-5.554547906E-1,7.843404770E0,-3.280056417E-1
1.375636816E1,-1.498770237E0,7.467514992E0,0.000000000E0
1.376634747E1,-2.267308950E0,7.594407558E0,4.572925270E-1
1.377635732E1,-2.494758129E0,7.692570210E0,9.552865028E-1
1.378636693E1,-3.064578056E0,8.252813339E0,1.953668594E0
1.379637678E1,-3.406949043E0,9.131484985E0,2.935291290E0
1.380635608E1,-2.928108692E0,9.624691010E0,4.242525578E0
1.381636570E1,-1.458068848E0,9.653421402E0,6.540958881E0
1.382637555E1,5.482721925E-1,9.303867340E0,8.676587105E0
1.383635485E1,2.415749550E0,8.611943245E0,1.032858658E1
1.384636447E1,3.236960649E0,7.898471355E0,1.130781460E1
1.385637432E1,4.156333923E0,7.254431248E0,1.104924107E1
1.386635362E1,5.434837818E0,7.019799232E0,1.006043530E1
1.387636324E1,6.928819656E0,7.383718014E0,9.133879662E0
1.388637308E1,8.566453934E0,8.896853447E0,9.308655739E0
1.389635239E1,1.059194851E1,1.093671322E1,1.026633644E1
1.390636201E1,1.092953110E1,1.411381912E1,1.198297977E1
1.391637185E1,1.199016190E1,1.682645035E1,1.336922264E1
1.392635116E1,1.886391449E1,1.952231979E1,1.347935581E1
1.393636078E1,2.782541275E1,2.278801155E1,1.186805820E1
1.394637062E1,3.270718765E1,2.456690407E1,6.502651691E0
1.395634993E1,3.383964539E1,2.137064362E1,-6.440402865E-1
1.396635955E1,3.062183952E1,1.927571869E1,-4.575319290E0
1.397636939E1,2.866098785E1,1.644577217E1,-7.326257229E0
1.398634870E1,2.516545486E1,1.340034676E1,-9.414001465E0
1.399635855E1,1.997482491E1,9.244012833E0,-9.864110947E0
1.400636816E1,1.333809757E1,4.869806290E0,-8.829815865E0
1.401634747E1,7.115567684E0,1.398213744E0,-6.720524311E0
1.402635732E1,2.671929121E0,-9.241618514E-1,-4.113238335E0
1.403636693E1,-8.619125932E-2,-2.346317768E0,-1.331176162E0
1.404637678E1,-1.177947283E0,-2.987963676E0,4.836287498E-1
1.405635609E1,-9.696516991E-1,-3.418920040E0,1.036689281E0
1.406636570E1,-3.926490843E-1,-3.722983599E0,2.537853718E-1
1.407637555E1,-8.379705995E-2,-3.991134167E0,-8.188169599E-1
1.408635485E1,-1.532289088E-1,-4.381389141E0,-1.541865945E0
1.409636447E1,-2.729389966E-1,-4.912901878E0,-1.884236693E0
1.410637432E1,2.154781483E-2,-5.544970989E0,-1.716642618E0
1.411635362E1,9.193734527E-1,-6.148310184E0,-1.335964561E0
1.412636324E1,1.810016513E0,-6.607996464E0,-9.337386489E-1
1.413637308E1,2.185906172E0,-7.132327080E0,-1.244984865E0
1.414635239E1,1.845929503E0,-7.551311970E0,-2.092532396E0
1.415636224E1,1.278503656E0,-8.032546997E0,-3.359065056E0
1.416637186E1,1.063025594E0,-8.681375504E0,-4.730942726E0
1.417635116E1,1.051054597E0,-9.382876396E0,-5.968744755E0
1.418636078E1,1.094150186E0,-9.746794701E0,-6.696582317E0
1.419637062E1,1.060631394E0,-9.868899345E0,-7.228095055E0
1.420634993E1,8.451532125E-1,-9.974244118E0,-7.156269073E0
1.421635955E1,1.319205165E0,-9.895236015E0,-6.560112476E0
1.422636939E1,2.513911724E0,-9.500192642E0,-5.717353821E0
1.423634870E1,4.412513733E0,-9.018958092E0,-5.130774021E0
1.424635855E1,5.080495834E0,-8.295908928E0,-5.906495571E0
1.425636816E1,3.007117271E0,-7.522581577E0,-7.831433773E0
1.426634747E1,2.075772762E0,-7.240066051E0,-8.731653214E0
1.427635732E1,4.886565685E0,-6.035782337E0,-7.108384609E0
1.428636693E1,1.076672459E1,-3.224989653E0,-2.305616140E0
1.429637678E1,1.988863373E1,1.623268723E0,3.162740469E0
1.430635609E1,3.236481857E1,7.690176010E0,6.907271862E0
1.431636570E1,4.435976791E1,1.462857246E1,8.319850922E0
1.432637555E1,4.925112152E1,2.160766983E1,6.126761913E0
1.433635486E1,4.516182709E1,2.550543022E1,3.519476354E-1
1.434636447E1,3.752910995E1,2.699462509E1,-6.727706909E0
1.435637432E1,3.019567108E1,2.616383553E1,-1.184890461E1
1.436635362E1,2.476562309E1,2.431790733E1,-1.236365795E1
1.437636324E1,2.057337570E1,2.236423874E1,-9.883264542E0
1.438637309E1,1.733402061E1,2.037226295E1,-6.368576527E0
1.439635239E1,1.441548824E1,1.845211220E1,-1.666364431E0
1.440636224E1,1.243308926E1,1.717839813E1,1.900996208E0
1.441637186E1,1.064462090E1,1.626860046E1,3.857059002E0
1.442635116E1,8.844181061E0,1.540668774E1,4.067748547E0
1.443636078E1,6.880935669E0,1.464054298E1,3.148375273E0
1.444637062E1,5.142745018E0,1.390791798E1,1.886630893E0
1.445634993E1,3.502717018E0,1.318726254E1,1.022324085E0
1.446624347E1,2.248155355E0,1.240435886E1,1.039083481E0
1.447636939E1,1.410184860E0,1.158075333E1,2.023100376E0
1.448634870E1,6.320692301E-1,1.104924107E1,3.608062029E0
1.449635855E1,-8.858546615E-2,1.082897472E1,5.293580055E0
1.450636816E1,-5.770025849E-1,1.103248119E1,6.483498096E0
1.451634747E1,-7.422025204E-1,1.154244614E1,7.122750282E0
1.452635732E1,-4.453215301E-1,1.198058510E1,7.247248650E0
1.453636693E1,-1.795651317E-1,1.246421432E1,7.117961884E0
1.454637678E1,1.070208192E0,1.309628296E1,7.302315235E0
1.455635609E1,3.555389643E0,1.343626022E1,7.659051418E0
1.456636570E1,5.506663799E0,1.348174953E1,8.470685959E0
1.457637555E1,7.587224960E0,1.223197651E1,1.101811600E1
1.458635486E1,1.033576870E1,1.111388397E1,1.329979038E1
1.459636447E1,1.179623222E1,9.773131371E0,1.413536644E1
1.460637432E1,1.339076996E1,8.686163902E0,1.228464890E1
1.461635362E1,1.500206757E1,9.227252960E0,8.396465302E0
1.462636347E1,1.500685596E1,1.053209305E1,5.528211594E0
1.463637309E1,1.506910515E1,1.285446930E1,4.582501888E0
1.464635239E1,1.532289124E1,1.568680954E1,5.015852451E0
1.465636201E1,1.714727211E1,1.817677879E1,5.353435040E0
1.466637186E1,2.044408798E1,2.008974648E1,6.581660271E0
1.467635116E1,2.338416862E1,2.035071373E1,8.860940933E0
1.468636078E1,2.307531548E1,1.727655983E1,8.082824707E0
1.469637062E1,2.039141655E1,1.429338455E1,4.917690277E0
1.470634993E1,1.950316620E1,1.220563984E1,1.019929886E0
1.471635955E1,1.870829201E1,1.010113716E1,-2.726995707E0
1.472636939E1,1.527979565E1,7.759607792E0,-5.415684223E0
1.473634870E1,1.072362900E1,5.351040840E0,-6.888118267E0
1.474635855E1,7.311892033E0,3.337517262E0,-7.982268333E0
1.475636816E1,4.762067318E0,1.841141105E0,-9.502586365E0
1.476634747E1,2.760514498E0,7.445967197E-1,-1.037407589E1
1.477635732E1,1.072602391E0,-1.412578970E-1,-1.004128170E1
1.478636693E1,3.112462163E-2,-9.026140571E-1,-9.095572472E0
1.479637678E1,-4.764461517E-1,-1.501164436E0,-8.099584579E0
1.480635609E1,-7.182605267E-1,-2.025494576E0,-7.000645638E0
1.481636570E1,-3.974374831E-1,-2.583343744E0,-5.808333397E0
1.482637555E1,2.873041928E-1,-3.292027235E0,-4.759673119E0
1.483635486E1,6.655880809E-1,-4.149151325E0,-3.976768970E0
1.484636447E1,8.427590132E-1,-4.920084476E0,-3.983951569E0
1.485637432E1,1.920149803E0,-5.705382824E0,-4.209006786E0
1.486635362E1,3.251325846E0,-6.394912720E0,-4.015076160E0
1.487636324E1,3.711012602E0,-6.974309444E0,-4.249708176E0
1.488637309E1,3.148375273E0,-7.754819393E0,-4.951209068E0
1.489635240E1,2.166752577E0,-8.475474358E0,-5.530605793E0
1.490636201E1,4.548983276E-1,-9.155426979E0,-6.234501362E0
1.491637186E1,4.548983276E-2,-1.011550236E1,-6.358999729E0
1.492635116E1,6.248866320E-1,-1.029746151E1,-5.489904404E0
1.493636078E1,1.793257117E0,-1.014662647E1,-4.453215122E0
1.494637063E1,3.442862034E0,-9.804255486E0,-3.641580820E0
1.495634993E1,4.762067318E0,-9.179368973E0,-3.394978046E0
1.496635955E1,5.767632008E0,-8.408436775E0,-4.106055737E0
1.497636940E1,6.775590897E0,-7.055712223E0,-5.104437828E0
1.498634870E1,7.184999466E0,-5.758055210E0,-6.945579052E0
1.499635855E1,7.019799232E0,-4.553771496E0,-9.514557838E0
1.500636816E1,8.437167168E0,-2.975992680E0,-1.035492229E1
1.501634747E1,1.255519390E1,-1.223437071E0,-8.341399193E0
1.502635732E1,1.708502388E1,1.213860273E0,-4.086902142E0
1.503636693E1,2.219903755E1,5.233725071E0,1.477222443E0
1.504637678E1,3.077506828E1,1.005325317E1,7.390900612E0
1.505635609E1,3.939179993E1,1.486559868E1,1.100135708E1
1.506636570E1,4.343321228E1,1.909615326E1,1.163342571E1
1.507637555E1,4.153221512E1,2.171301460E1,8.757989883E0
1.508635486E1,3.420356369E1,2.294363403E1,3.280056238E0
1.509636447E1,2.618538475E1,2.228283501E1,-2.116474390E0
1.510637432E1,2.036747360E1,2.076969910E1,-5.719748020E0
1.511635363E1,1.749443245E1,1.874659920E1,-5.609614372E0
1.512636347E1,1.579215431E1,1.730050087E1,-2.104503393E0
1.513637309E1,1.427901936E1,1.605551720E1,1.312022567E0
1.514635240E1,1.266053867E1,1.503319263E1,3.952826977E0
1.515636201E1,1.119289303E1,1.438196945E1,5.554547787E0
1.516637186E1,1.038604736E1,1.416649151E1,5.719748020E0
1.517635117E1,9.947908401E0,1.445619011E1,4.541800499E0
1.518636078E1,8.880094528E0,1.490629959E1,3.059789658E0
1.519637063E1,7.275979042E0,1.522233486E1,1.410184860E0
1.520634993E1,5.983109951E0,1.518163300E1,4.668693244E-1
1.521635978E1,4.979939461E0,1.482010841E1,3.854664862E-1
1.522636940E1,3.995922565E0,1.430296135E1,1.170764685E0
1.523634870E1,3.268085241E0,1.369483376E1,2.387019157E0
1.524635855E1,2.758120298E0,1.323514652E1,3.703830004E0
1.525636817E1,2.224213362E0,1.273715305E1,4.711789131E0
1.526634747E1,1.831564307E0,1.198297977E1,5.298368454E0
1.527635732E1,1.776497602E0,1.147780323E1,5.793968201E0
1.528636693E1,1.874659896E0,1.074757099E1,6.066906929E0
1.529637678E1,1.651999116E0,9.837775230E0,6.177040577E0
1.530635609E1,1.331176162E0,8.836998940E0,6.370970726E0
1.531636570E1,1.043871999E0,8.315062523E0,6.351817131E0
1.532637555E1,1.496376038E0,7.931990147E0,5.853823185E0
1.533635486E1,2.750937700E0,7.730877399E0,5.190629482E0
1.534636447E1,4.328716755E0,7.503427982E0,5.061342239E0
1.535637432E1,6.086060524E0,7.244854450E0,5.738901615E0
1.536635363E1,7.457938194E0,7.383718014E0,6.576871872E0
1.537636324E1,7.596801758E0,8.149862289E0,6.885724068E0
1.538637309E1,7.084442616E0,1.021127033E1,7.015010834E0
1.539635240E1,7.546523571E0,1.357751751E1,7.230489254E0
1.540636224E1,1.256237602E1,1.833958435E1,8.317456245E0
1.541637186E1,2.432508850E1,2.262999535E1,1.153047562E1
1.542635117E1,3.153403091E1,2.341768646E1,1.403241634E1
1.543636078E1,3.380133820E1,2.116474342E1,1.318486881E1
1.544637063E1,3.191710281E1,1.837071037E1,9.557653427E0
1.545634994E1,2.867056465E1,1.617283249E1,4.754884720E0
1.546635955E1,2.505053329E1,1.351287460E1,-4.261679053E-1
1.547638900E1,2.127008820E1,1.096304989E1,-4.501099110E0
1.548636831E1,1.750640297E1,8.370129585E0,-6.962338448E0
1.549637815E1,1.420001030E1,5.870582581E0,-7.659051418E0
1.550638777E1,1.047702694E1,3.706224203E0,-7.242460251E0
1.551636708E1,7.546523571E0,1.982398987E0,-6.258443356E0
1.552637692E1,5.712565422E0,4.429273009E-1,-4.826710701E0
1.553638654E1,4.687847137E0,-7.565677166E-1,-3.138798475E0
1.554639639E1,3.823540211E0,-1.862688899E0,-1.855506301E0
1.555637569E1,2.987963676E0,-3.086126089E0,-1.027112484E0
1.556638531E1,2.142810583E0,-4.091690540E0,-5.722141862E-1
1.557639515E1,1.517923832E0,-4.776432514E0,-3.423708379E-1
1.558637446E1,1.369483352E0,-5.439626217E0,-4.955997467E-1
1.559638408E1,1.237802267E0,-6.217741966E0,-7.158663273E-1
1.560639392E1,1.345541358E0,-6.991068840E0,-9.983820915E-1
1.561637323E1,1.762132406E0,-7.721300602E0,-1.486799240E0
1.562638285E1,2.334346771E0,-8.513781548E0,-2.274491549E0
1.563639269E1,2.085349798E0,-9.076418877E0,-3.122039080E0
1.564637200E1,1.065419793E0,-9.459490776E0,-4.017470360E0
1.565638162E1,-1.819593310E-1,-9.813833237E0,-4.843470097E0
1.566639146E1,-1.352723956E0,-1.000297451E1,-5.418078423E0
1.567637077E1,-2.348711967E0,-1.009874249E1,-5.568912983E0
1.568638039E1,-2.568978310E0,-1.013226128E1,-5.284003258E0
1.569639023E1,-1.697489023E0,-1.013465595E1,-4.393360138E0
1.570636954E1,5.075707436E-1,-9.971850395E0,-3.260902643E0
1.571637939E1,2.681505919E0,-9.627084732E0,-2.001552582E0
1.572638900E1,4.862623692E0,-8.997409821E0,-1.005564690E0
1.573636831E1,6.631938934E0,-8.176198959E0,-1.221042871E0
1.574637816E1,6.701370716E0,-7.194576263E0,-3.181894064E0
1.575638777E1,4.592078686E0,-6.078877926E0,-6.112396717E0
1.576636708E1,3.189076662E0,-4.867412090E0,-8.441955566E0
1.577637692E1,5.549759388E0,-3.296815634E0,-8.465897560E0
1.578638654E1,1.030943298E1,-1.142034173E0,-6.081272125E0
1.579639639E1,1.734120369E1,1.872265697E0,-1.956062794E0
1.580637569E1,2.711433411E1,5.329493046E0,3.145981073E0
1.581638531E1,3.819230652E1,9.277531624E0,7.563282967E0
1.582639516E1,4.599261475E1,1.420958710E1,9.457097054E0
1.583637446E1,4.708197784E1,1.848802567E1,7.855375767E0
1.584638408E1,4.238694763E1,2.186145592E1,2.760514498E0
1.585639392E1,3.599921799E1,2.295800018E1,-2.810792685E0
1.586637323E1,3.004004860E1,2.227804756E1,-6.368576527E0
1.587638285E1,2.522052002E1,2.062125969E1,-6.528987885E0
1.588639269E1,2.117910767E1,1.871068573E1,-4.434061527E0
1.589637200E1,1.787989807E1,1.682645035E1,-1.814804912E0
1.590638162E1,1.508347034E1,1.505473995E1,8.690952063E-1
1.591639146E1,1.241633034E1,1.358470058E1,3.222595453E0
1.592637077E1,1.050096893E1,1.272039318E1,4.264073372E0
1.593638039E1,8.916007042E0,1.215057373E1,4.431667328E0
1.594639023E1,7.137115479E0,1.184890461E1,3.976768970E0
1.595636954E1,5.408501625E0,1.162863731E1,3.287238836E0
1.596637916E1,4.503493309E0,1.131499767E1,2.810792685E0
1.597638900E1,4.189853191E0,1.106599998E1,2.935291290E0
1.598636831E1,3.715801001E0,1.079545593E1,3.428496838E0
1.599637816E1,2.717418909E0,1.065180302E1,3.950432777E0
1.600638777E1,2.078166962E0,1.079066753E1,4.299986362E0
1.601636708E1,1.493981838E0,1.107557678E1,4.886565685E0
1.602637692E1,5.698199868E-1,1.149935055E1,5.612008572E0
1.603638654E1,-3.184288144E-1,1.185848141E1,6.387730122E0
1.604639639E1,-1.182735682E0,1.216733265E1,7.280767441E0
1.605637569E1,-1.438915253E0,1.210987186E1,7.924807549E0
1.606638531E1,-1.582567334E0,1.177947235E1,8.899248123E0
1.607639516E1,-1.283292055E0,1.148498535E1,9.344569206E0
1.608637446E1,-3.351882473E-2,1.119768143E1,9.062053680E0
1.609638408E1,1.388636947E0,1.093910789E1,8.999804497E0
1.610639393E1,2.817975283E0,1.053688145E1,9.148244858E0
1.611637323E1,4.242525578E0,1.002931118E1,9.349357605E0
1.612638285E1,5.169081688E0,9.986215591E0,9.411606789E0
1.613639269E1,6.938396454E0,1.111388397E1,1.007719517E1
1.614637200E1,9.662998199E0,1.329260826E1,1.167891598E1
1.615638162E1,1.539471722E1,1.678814316E1,1.444900703E1
1.616639146E1,2.516545486E1,2.113122368E1,1.760217094E1
1.617637077E1,3.312377930E1,2.356612778E1,1.764766121E1
1.618638062E1,3.420117188E1,2.430114746E1,1.299333286E1
1.619639023E1,3.311180878E1,2.246718788E1,5.679046631E0
1.620636954E1,3.034650612E1,1.933796692E1,-9.385270476E-1
1.621637916E1,2.866577721E1,1.697967911E1,-4.232948780E0
1.622638900E1,2.767697144E1,1.437718105E1,-6.517016888E0
1.623636831E1,2.587653160E1,1.132457447E1,-7.864952564E0
1.624637816E1,2.283589554E1,7.685387611E0,-8.506598473E0
1.625638777E1,1.849760246E1,4.290409565E0,-8.662221909E0
1.626636708E1,1.387439919E1,1.319205165E0,-7.965508938E0
1.627637692E1,9.493009567E0,-1.422155857E0,-5.791574001E0
1.628638654E1,5.738901615E0,-3.064578056E0,-3.440467834E0
1.629639639E1,3.840299606E0,-4.299986362E0,-1.541865945E0
1.630637569E1,2.877830505E0,-5.267243862E0,-4.118026793E-1
1.631638531E1,2.477998734E0,-6.119579315E0,1.939303428E-1
1.632639516E1,2.298433542E0,-6.907271862E0,5.722141862E-1
1.633637446E1,2.169146776E0,-7.702147007E0,6.009446383E-1
1.634638408E1,1.893813491E0,-8.573636055E0,3.711012602E-1
1.635639393E1,1.714248419E0,-9.244012833E0,-7.661445439E-2
1.636637323E1,1.800439715E0,-9.737217903E0,-8.164227605E-1
1.637638308E1,1.520318031E0,-9.892841339E0,-1.965639591E0
1.638639270E1,8.164227605E-1,-9.715670586E0,-3.531447411E0
1.639637200E1,2.657563984E-1,-9.646238327E0,-5.090072632E0
1.640638162E1,-1.022324085E0,-9.548076630E0,-6.157886982E0
1.641639146E1,-2.738966703E0,-9.569623947E0,-6.684611320E0
1.642637077E1,-4.460397720E0,-9.832986832E0,-6.766014099E0
1.643638039E1,-5.279214859E0,-9.959878922E0,-6.251260757E0
1.644639023E1,-4.560954094E0,-1.000776291E1,-5.118803024E0
1.645636954E1,-2.413355350E0,-9.842563629E0,-3.737348795E0
1.646637916E1,4.405331016E-1,-9.437943459E0,-2.166752577E0
1.647638900E1,2.983175278E0,-8.920795441E0,-9.385270476E-1
1.648636831E1,4.625597477E0,-8.327033043E0,-3.806780577E-1
1.649637816E1,4.666299343E0,-7.328651428E0,-1.063025594E0
1.650638777E1,2.588132143E0,-6.414066315E0,-2.573766708E0
1.651636708E1,4.309563041E-1,-5.114014626E0,-5.310339451E0
1.652637693E1,1.865083098E0,-3.021482468E0,-6.825869083E0
1.653638654E1,8.841787338E0,1.723825186E-1,-5.458779812E0
1.654639639E1,2.041535759E1,4.795586109E0,-2.015917778E0
1.655637570E1,3.080379868E1,1.082897472E1,1.216254473E0
1.656638531E1,3.723462296E1,1.613931274E1,3.792415380E0
1.657639516E1,3.824976730E1,2.012805367E1,4.560954094E0
1.658637446E1,3.752671814E1,2.228762436E1,4.316745758E0
1.659638408E1,3.584119797E1,2.379118156E1,3.102885485E0
1.660639393E1,3.363853455E1,2.460521126E1,6.799532771E-1
1.661637323E1,3.009032631E1,2.409285164E1,-1.398213744E0
1.662638285E1,2.595314598E1,2.285265541E1,-2.466027737E0
1.663639270E1,2.161006546E1,2.076251793E1,-2.719813108E0
1.664637200E1,1.665885544E1,1.850238991E1,-1.884236693E0
1.665638162E1,1.286404610E1,1.648407936E1,-4.908113480E-1
1.666639146E1,1.004607010E1,1.474588871E1,1.074996591E0
1.667637077E1,8.180987358E0,1.340992355E1,2.659958124E0
1.668638039E1,7.053318024E0,1.251209831E1,3.890577793E0
1.669639023E1,6.478709698E0,1.199255657E1,4.297592163E0
1.670636954E1,5.705382824E0,1.159511852E1,3.823540211E0
1.671637939E1,4.630385876E0,1.104924107E1,3.019088268E0
1.672638900E1,3.684676409E0,1.062786102E1,2.643198729E0
1.673636831E1,2.731784105E0,1.014423275E1,2.607285738E0
1.674637816E1,2.104503393E0,9.543288231E0,3.014299870E0
1.675638777E1,1.853112102E0,9.078812599E0,3.792415380E0
1.676636708E1,1.584961534E0,8.669404030E0,4.544194698E0
1.677637693E1,1.010353088E0,8.176198959E0,4.845864296E0
1.678638654E1,-2.561795712E-1,7.752425194E0,4.855441093E0
1.679639639E1,-1.635239720E0,7.608773232E0,4.618414879E0
1.680637570E1,-2.595314741E0,7.750030994E0,4.125209332E0
1.681638531E1,-3.026270866E0,8.104372978E0,3.416525841E0
1.682639516E1,-2.760514498E0,8.353369713E0,2.815581083E0
1.683637447E1,-2.353500366E0,8.655038834E0,2.437297344E0
1.684638408E1,-1.417367458E0,8.954314232E0,2.102109194E0
1.685639393E1,-6.153098345E-1,9.279925346E0,2.037465572E0
1.686637323E1,2.801215947E-1,9.289502144E0,2.331952572E0
1.687638285E1,8.882488012E-1,9.457097054E0,3.416525841E0
1.688639270E1,1.699883223E0,1.034774017E1,4.797980309E0
1.689637200E1,3.179499865E0,1.208832455E1,6.715735912E0
1.690638185E1,5.872976780E0,1.534683323E1,1.032858658E1
1.691639146E1,1.305797577E1,1.939064026E1,1.513135433E1
1.692637077E1,2.313277626E1,2.387737274E1,1.819832802E1
1.693638039E1,3.219483185E1,2.642719841E1,1.676180649E1
1.694639023E1,3.663367844E1,2.605130959E1,1.108515358E1
1.695636954E1,3.671029282E1,2.270660973E1,3.339911461E0
1.696637916E1,3.384443665E1,2.044408798E1,-3.359065056E0
1.697638900E1,3.086844254E1,1.777694702E1,-9.301473618E0
1.698636831E1,2.691082764E1,1.464533138E1,-1.336922264E1
1.699637816E1,2.182314873E1,1.117613316E1,-1.437957573E1
1.700638777E1,1.580173111E1,7.331045628E0,-1.194946098E1
1.701636708E1,1.141315937E1,4.515464306E0,-8.678980827E0
1.702637693E1,8.051700592E0,2.375048161E0,-5.439626217E0
1.703638654E1,5.334281445E0,7.900865674E-1,-2.528276920E0
1.704639639E1,3.373430252E0,-2.968810201E-1,-2.250549644E-1
1.705637570E1,2.360682964E0,-1.146822572E0,1.084573388E0
1.706638531E1,2.157175779E0,-2.082955360E0,1.362300754E0
1.707639516E1,2.080561161E0,-3.512293816E0,9.624691010E-1
1.708637447E1,1.731007814E0,-4.692635536E0,2.944868207E-1
1.709638408E1,1.055842996E0,-5.906495571E0,-6.799532771E-1
1.710639393E1,3.351882473E-2,-7.230489254E0,-1.623268723E0
1.711637324E1,-8.451532125E-1,-8.413225174E0,-2.197877169E0
1.712638285E1,-1.132457376E0,-9.768342972E0,-2.952050686E0
1.713639270E1,-2.267308950E0,-1.056082344E1,-4.297592163E0
1.714637200E1,-2.916137695E0,-1.207156467E1,-6.691793919E0
1.715638162E1,-3.244143248E0,-1.291193008E1,-6.892906666E0
1.716639147E1,-3.239354849E0,-1.313219643E1,-6.452373505E0
1.717637077E1,-2.442085743E0,-1.329500198E1,-5.858611584E0
1.718638039E1,-1.884236693E0,-1.292150688E1,-5.377377033E0
1.719639024E1,-1.656787634E0,-1.248815632E1,-4.666299343E0
1.720636954E1,-1.527500629E0,-1.219606304E1,-4.094084740E0
1.721637916E1,-1.364694953E0,-1.164300251E1,-3.502717018E0
1.722638900E1,3.184288144E-1,-1.079306126E1,-2.868253708E0
1.723636831E1,3.244143248E0,-8.985439301E0,-1.865083098E0
1.724637816E1,7.874529362E0,-6.375759125E0,-1.628057122E0
1.725638777E1,1.248336792E1,-3.588908434E0,-2.604891539E0
1.726636708E1,1.356075859E1,-7.685387731E-1,-5.346252441E0
1.727637693E1,1.157117653E1,2.221819162E0,-8.032546997E0
1.728638654E1,1.045069027E1,4.996698856E0,-9.531316757E0
1.729639639E1,1.401565647E1,9.222464561E0,-7.491456985E0
1.730637570E1,2.341768646E1,1.378581333E1,-3.246537447E0
1.731638531E1,3.558501816E1,1.905066299E1,3.663128614E0
1.732639516E1,4.432625198E1,2.504095650E1,1.098699188E1
1.733637447E1,4.624161148E1,2.890040779E1,1.361582470E1
1.734638408E1,4.114675140E1,2.971443748E1,1.046745014E1
1.735639393E1,3.177823830E1,2.813426399E1,4.182670593E0
1.736637324E1,2.068829727E1,2.451902008E1,-1.900996208E0
1.737638308E1,1.349611473E1,2.069308472E1,-3.902548790E0
1.738639270E1,9.222464561E0,1.747288322E1,-2.580949545E0
1.739637200E1,7.431602001E0,1.527740097E1,-9.337386489E-2
1.740638162E1,6.885724068E0,1.382651520E1,2.042253971E0
1.741639147E1,6.466738701E0,1.277306652E1,2.949656487E0
1.742637077E1,5.846640587E0,1.183932781E1,2.650381327E0
1.743638062E1,5.023035049E0,1.080742645E1,1.496376038E0
1.744639024E1,4.244919777E0,9.976638794E0,5.123591423E-1
1.745636954E1,3.569754839E0,9.244012833E0,-1.292868853E-1
1.746637916E1,2.973598480E0,8.590395927E0,-1.699883193E-1
1.747638900E1,2.312798738E0,7.960720539E0,2.681505978E-1
1.748636831E1,1.683123827E0,7.369352818E0,9.720458984E-1
1.749637816E1,1.101332784E0,6.892906666E0,1.802833915E0
1.750638777E1,5.195417404E-1,6.675034523E0,2.746149302E0
1.751636708E1,-2.513911724E-1,6.651092529E0,3.442862034E0
1.752637693E1,-7.182605267E-1,6.971915245E0,3.940855980E0
1.753638654E1,-1.261744261E0,7.587224960E0,4.326322556E0
1.754639639E1,-1.493981838E0,8.125920296E0,4.750096321E0
1.755637570E1,-1.584961534E0,8.571242332E0,5.173870087E0
1.756638531E1,-1.391031146E0,8.813055992E0,5.571307182E0
1.757639516E1,-1.403002143E0,8.805873871E0,6.100425720E0
1.758637447E1,-2.049436569E0,8.504204750E0,6.679822922E0
1.759638408E1,-2.698265314E0,8.283937454E0,7.275979042E0
1.760639393E1,-2.588132143E0,8.434772491E0,8.130708694E0
1.761637324E1,-1.515529633E0,8.810662270E0,8.927978516E0
1.762638285E1,6.200982332E-1,9.421183586E0,9.691728592E0
1.763639270E1,2.717418909E0,1.082179165E1,1.040520096E1
1.764637200E1,5.832275391E0,1.311064816E1,1.120486355E1
1.765638162E1,1.124795914E1,1.754949760E1,1.301727486E1
1.766639147E1,1.933078384E1,2.174653435E1,1.424071217E1
1.767637078E1,2.700898933E1,2.498588943E1,1.247379112E1
1.768638039E1,3.131376457E1,2.774879837E1,6.727706909E0
1.769639024E1,3.464170456E1,2.822045517E1,-1.376665950E0
1.770636954E1,3.555389404E1,2.583343697E1,-9.227252960E0
1.771637916E1,3.364092636E1,2.328600502E1,-1.391988850E1
1.772638901E1,2.919489479E1,1.907939339E1,-1.662054825E1
1.773636831E1,2.341050339E1,1.487517548E1,-1.700122643E1
1.774637816E1,1.862210083E1,1.082658005E1,-1.495657825E1
1.775638778E1,1.468603325E1,7.400477409E0,-1.138682365E1
1.776636708E1,1.148498535E1,4.709394932E0,-7.642292023E0
1.777637693E1,8.765172005E0,2.365471363E0,-4.393360138E0
1.778638654E1,5.908889771E0,4.764461517E-1,-1.731007814E0
1.779639639E1,3.536235809E0,-1.374271750E0,4.884171486E-1
1.780637570E1,1.558625340E0,-2.626439333E0,1.733402014E0
1.781638531E1,7.445967197E-1,-3.591302633E0,2.097320795E0
1.782639516E1,3.280056417E-1,-4.637568474E0,1.742978811E0
1.783637447E1,-8.379705995E-2,-5.588066578E0,1.211466074E0
1.784638408E1,-1.580173075E-1,-6.517016888E0,4.644751251E-1
1.785639393E1,5.267243832E-2,-7.407660007E0,-5.578489900E-1
1.786637324E1,7.781155705E-1,-8.240841866E0,-1.896207690E0
1.787638285E1,1.853112102E0,-9.174580574E0,-3.189076662E0
1.788639270E1,2.786850691E0,-9.864110947E0,-4.197035789E0
1.789637201E1,2.832340717E0,-1.033098030E1,-5.267243862E0
1.790638162E1,1.584961534E0,-1.069489861E1,-6.028599739E0
1.791639147E1,-9.409212470E-1,-1.134851646E1,-6.179434776E0
1.792637078E1,-4.106055737E0,-1.212423706E1,-5.961562157E0
1.793638039E1,-6.885724068E0,-1.278743172E1,-5.348646641E0
1.794639024E1,-7.173028469E0,-1.311304283E1,-3.734954596E0
1.795636954E1,-4.390965939E0,-1.305558205E1,-1.632845521E0
1.796637939E1,-4.285621047E-1,-1.241633034E1,5.985504389E-2
1.797638901E1,3.653551817E0,-1.145146656E1,9.481038451E-1
1.798636831E1,6.598419666E0,-9.971850395E0,4.692635238E-1
1.799637816E1,7.105990410E0,-7.874529362E0,-1.259350061E0
1.800638778E1,5.195417881E0,-6.210559368E0,-4.369418144E0
1.801636708E1,3.236960649E0,-4.671087742E0,-7.714118004E0
1.802637693E1,4.673481941E0,-3.280056238E0,-8.662221909E0
1.803638655E1,8.398859978E0,-1.355118155E0,-7.960720539E0
1.804639639E1,1.426465416E1,1.549048543E0,-5.978321552E0
1.805637570E1,2.238099670E1,5.130774021E0,-3.124433279E0
1.806638531E1,3.252044296E1,8.312667847E0,-9.600749016E-1
1.807639516E1,4.093127060E1,1.286643982E1,5.602431893E-1
1.808637447E1,4.543476486E1,1.834197998E1,-3.806780577E-1
1.809638408E1,4.229117966E1,2.126529884E1,-4.086902142E0
1.810639393E1,3.554192352E1,2.239775658E1,-7.589619160E0
1.811637324E1,2.856521988E1,2.225649834E1,-9.057265282E0
1.812638285E1,2.459563446E1,2.143528748E1,-8.698134422E0
1.813639270E1,2.277364731E1,2.069069099E1,-7.173028469E0
1.814637201E1,2.079842949E1,1.958935738E1,-5.142745018E0
1.815638162E1,1.801397324E1,1.807143402E1,-2.885013103E0
1.816639147E1,1.515050793E1,1.638591576E1,-4.333505034E-1
1.817637078E1,1.273715305E1,1.507628822E1,1.048660398E0
1.818638039E1,1.053209305E1,1.402283955E1,1.587355733E0
1.819639024E1,8.633491516E0,1.315374374E1,1.288080573E0
1.820636954E1,6.706159115E0,1.227986050E1,9.672574997E-1
1.821637916E1,4.771644115E0,1.149456215E1,8.307880163E-1
1.822638901E1,3.282450438E0,1.070926380E1,9.097966552E-1
1.823636831E1,2.099714994E0,1.008198357E1,1.364694953E0
1.824637816E1,1.244984865E0,9.686940193E0,2.099714994E0
1.825638778E1,4.644751251E-1,9.418789864E0,2.820369720E0
1.826636708E1,-2.370259613E-1,9.519346237E0,3.670311213E0
1.827637693E1,-9.002198577E-1,9.974244118E0,4.335899353E0
1.828638655E1,-1.927332401E0,1.080024433E1,4.896142483E0
1.829639639E1,-2.688688517E0,1.155681133E1,5.317522049E0
1.830637570E1,-3.457227230E0,1.242351246E1,5.688623428E0
1.831638532E1,-3.866635799E0,1.288080502E1,6.193799973E0
1.832639516E1,-3.016694069E0,1.278982544E1,6.904877663E0
1.833637447E1,-1.446097851E0,1.227507210E1,8.291120529E0
1.834638408E1,1.297657371E0,1.195424938E1,9.971850395E0
1.835639393E1,4.604049683E0,1.153526402E1,1.144907284E1
1.836637324E1,7.501033783E0,1.116895103E1,1.242111874E1
1.837638308E1,9.411606789E0,1.228464890E1,1.290953541E1
1.838639270E1,1.362300777E1,1.477222443E1,1.379060173E1
1.839637201E1,2.231874847E1,1.821508598E1,1.472194672E1
1.840638185E1,3.313574982E1,2.122220421E1,1.268687439E1
1.841639147E1,3.811808395E1,2.297715378E1,6.215347767E0
1.842637078E1,3.671029282E1,2.469140244E1,-1.498770237E0
1.843638039E1,3.681085205E1,2.289575005E1,-9.088389397E0
1.844639024E1,3.493858719E1,1.958456993E1,-1.238520527E1
1.845636955E1,3.173993111E1,1.679053688E1,-1.126232433E1
1.846637916E1,2.728432274E1,1.310825443E1,-9.457097054E0
1.847638901E1,2.116474342E1,8.729259491E0,-8.214506149E0
1.848636832E1,1.440591145E1,4.750096321E0,-6.789956093E0
1.849637816E1,8.475474358E0,1.747767210E0,-4.833893299E0
1.850638778E1,4.378994942E0,-1.532289088E-1,-2.442085743E0
1.851636708E1,2.683900118E0,-1.237802267E0,-1.005564705E-1
1.852637693E1,1.905784607E0,-1.802833915E0,1.108515382E0
1.853638655E1,1.659181833E0,-2.403778553E0,9.074024558E-1
1.854639639E1,1.489193439E0,-3.165134668E0,1.101332754E-1
1.855637570E1,1.556231141E0,-3.881000996E0,-1.146822572E0
1.856638532E1,1.393425345E0,-4.718971729E0,-2.339135170E0
1.857639516E1,9.169792533E-1,-5.643133640E0,-3.033453465E0
1.858637447E1,5.147533417E-1,-6.524199486E0,-2.987963676E0
1.859638408E1,4.884171486E-1,-7.448361397E0,-2.492363930E0
1.860639393E1,8.810662031E-1,-7.900865555E0,-2.149993181E0
1.861637324E1,1.472434044E0,-8.319850922E0,-2.025494576E0
1.862638285E1,2.118868589E0,-9.112331390E0,-2.463633537E0
1.863639270E1,2.219424963E0,-9.940725327E0,-3.636792421E0
1.864637201E1,1.106121182E0,-1.074038887E1,-4.788403511E0
1.865638162E1,-6.919242740E-1,-1.148259163E1,-6.119579315E0
1.866639147E1,-2.341529369E0,-1.204044056E1,-7.149086475E0
1.867637078E1,-2.786850691E0,-1.225831223E1,-7.043741226E0
1.868638039E1,-1.953668594E0,-1.232056236E1,-6.459556103E0
1.869639024E1,-1.987187415E-1,-1.202846909E1,-5.331887245E0
1.870636955E1,2.525882721E0,-1.136527538E1,-3.902548790E0
1.871637916E1,5.681440830E0,-1.017296314E1,-2.791639090E0
1.872638901E1,8.255207062E0,-8.379706383E0,-2.466027737E0
1.873636832E1,9.660603523E0,-6.349422932E0,-3.435679436E0
1.874637816E1,8.623914719E0,-4.050989151E0,-6.179434776E0
1.875638778E1,7.261613846E0,-1.939303398E0,-7.675810814E0
1.876636709E1,7.457938194E0,1.264138460E0,-7.666234016E0
1.877637693E1,1.175792408E1,5.341464043E0,-6.742072105E0
1.878638655E1,2.098038864E1,1.033337498E1,-5.075707436E0
1.879639639E1,3.379655075E1,1.513853741E1,-3.004723072E0
1.880637570E1,4.390008163E1,1.979525948E1,1.532289088E-1
1.881638532E1,4.876270676E1,2.460042191E1,4.106055737E0
1.882639516E1,4.507563400E1,2.602497292E1,5.339069843E0
1.883637447E1,3.475183868E1,2.492363930E1,4.216189384E0
1.884638408E1,2.398990059E1,2.256056213E1,2.422932148E0
1.885639393E1,1.700362015E1,2.018790817E1,1.649604917E0
1.886637324E1,1.391510010E1,1.802115631E1,1.989581585E0
1.887638308E1,1.268687439E1,1.642422295E1,3.423708439E0
1.888639270E1,1.154962921E1,1.504995155E1,5.003881454E0
1.889637201E1,1.015859795E1,1.401326275E1,5.365406036E0
1.890638162E1,8.698134422E0,1.315853214E1,4.764461517E0
1.891639147E1,7.388506413E0,1.239478207E1,3.557783842E0
1.892637078E1,6.007051945E0,1.167891598E1,2.135627985E0
1.893638062E1,4.790797710E0,1.095107841E1,9.026140571E-1
1.894639024E1,3.885789394E0,1.037647057E1,2.633621916E-2
1.895636955E1,3.181894064E0,9.835380554E0,-5.817909837E-1
1.896637916E1,2.444479942E0,9.277531624E0,-7.493851185E-1
1.897638901E1,1.877054095E0,8.746018410E0,-4.381389022E-1
1.898636832E1,1.108515382E0,8.379706383E0,1.221042871E-1
1.899637816E1,-1.173158810E-1,8.099584579E0,5.746083856E-1
1.900638778E1,-1.635239720E0,7.833827972E0,8.499416113E-1
1.901636709E1,-2.717418909E0,7.884106159E0,1.156399369E0
1.902637693E1,-2.961627483E0,8.288725853E0,1.771709204E0
1.903638655E1,-2.195482969E0,8.753201485E0,2.734178305E0
1.904639639E1,-1.417367458E0,9.090784073E0,3.830722809E0
1.905637570E1,-7.015010715E-1,9.220070839E0,5.154716492E0
1.906638532E1,5.746084079E-2,9.176975250E0,6.208165169E0
1.907639516E1,1.292868853E-1,8.973467827E0,6.885724068E0
1.908637447E1,1.173158810E-1,8.825027466E0,7.058106422E0
1.909638409E1,1.151610970E0,8.961497307E0,7.105990410E0
1.910639393E1,3.031059265E0,9.603142738E0,7.223306656E0
1.911637324E1,4.570530891E0,1.086488724E1,7.467514992E0
1.912638286E1,6.569689274E0,1.337879944E1,7.515398979E0
1.913639270E1,8.346187592E0,1.723825264E1,8.329427719E0
1.914637201E1,1.266772079E1,2.187821579E1,1.001015759E1
1.915638162E1,2.334346581E1,2.712870026E1,9.888052940E0
1.916639147E1,3.354276657E1,3.094026947E1,5.504269600E0
1.917637078E1,3.591781235E1,3.200808334E1,-1.201889277E0
1.918638039E1,3.312617493E1,2.803610229E1,-7.007828236E0
1.919639024E1,2.853888512E1,2.477041054E1,-8.204929352E0
1.920636955E1,2.604652023E1,2.093968773E1,-7.596801758E0
1.921637916E1,2.297954750E1,1.704432106E1,-6.651092529E0
1.922638901E1,1.900756645E1,1.284010410E1,-5.736507416E0
1.923636832E1,1.428380775E1,8.681375504E0,-4.343081951E0
1.924637816E1,8.841787338E0,4.632780075E0,-2.487575531E0
1.925638778E1,4.551377296E0,2.020706177E0,-9.888052940E-1
1.926636709E1,1.465251446E0,3.519476354E-1,1.268926859E-1
1.927637693E1,2.968810201E-1,-6.871358752E-1,8.236053586E-1
1.928638655E1,7.086837292E-1,-1.326387763E0,8.403648138E-1
1.929639639E1,1.450886250E0,-1.886630893E0,2.035071403E-1
1.930637570E1,1.900996208E0,-2.815581083E0,-5.578489900E-1
1.931638532E1,1.874659896E0,-4.094084740E0,-1.046266198E0
1.932639516E1,2.181117773E0,-5.082890034E0,-1.580173135E0
1.933637447E1,3.081337690E0,-6.239289761E0,-2.190694571E0
1.934638409E1,4.120420933E0,-7.513004780E0,-2.892195702E0
1.935639393E1,5.020640850E0,-8.753201485E0,-3.641580820E0
1.936637324E1,5.327098846E0,-9.622296333E0,-4.946420670E0
1.937638286E1,4.616020679E0,-1.017775154E1,-6.287173748E0
1.938639270E1,3.126827478E0,-1.080263805E1,-7.747636795E0
1.939637201E1,3.016694188E-1,-1.178186703E1,-8.710105896E0
1.940638186E1,-3.284844637E0,-1.274672985E1,-8.554482460E0
1.941639147E1,-6.406883717E0,-1.353681660E1,-7.395689011E0
1.942637078E1,-7.419631004E0,-1.388636971E1,-5.793968201E0
1.943638039E1,-6.069301128E0,-1.335246277E1,-4.311957359E0
1.944639024E1,-2.269703150E0,-1.211944866E1,-3.660734415E0
1.945636955E1,2.286462545E0,-1.064462090E1,-4.345476151E0
1.946637916E1,6.543353081E0,-9.050082207E0,-5.772420406E0
1.947638901E1,8.396465302E0,-7.438784599E0,-6.588842869E0
1.948636832E1,8.288725853E0,-5.863399982E0,-6.864176273E0
1.949637816E1,5.882553577E0,-4.742913723E0,-6.615179062E0
1.950638778E1,2.750937700E0,-3.952826977E0,-5.465962410E0
1.951636709E1,2.331952572E0,-2.367865562E0,-3.390189648E0
1.952637693E1,6.603208065E0,2.681505978E-1,-6.368576288E-1
1.953638655E1,1.881603050E1,5.023035049E0,1.288080573E0
1.954639639E1,3.283168793E1,1.042914295E1,1.572990537E0
1.955637570E1,4.267425156E1,1.562695408E1,6.105214357E-1
1.956638532E1,4.442919922E1,1.977849960E1,-1.070208192E0
1.957639516E1,3.878367233E1,2.179441833E1,-3.086126089E0
1.958637447E1,3.138558960E1,2.212481880E1,-4.903325081E0
1.959638409E1,2.590286827E1,2.184469604E1,-6.327875137E0
1.960639393E1,2.268506050E1,2.114558983E1,-6.663063526E0
1.961637324E1,2.034353256E1,2.037465668E1,-6.081272125E0
1.962638286E1,1.815523148E1,1.926374626E1,-4.881777287E0
1.963639270E1,1.579215431E1,1.781764984E1,-3.689464808E0
1.964637201E1,1.374032402E1,1.625184059E1,-2.643198729E0
1.965638186E1,1.250012684E1,1.506671143E1,-1.565807939E0
1.966639147E1,1.076193619E1,1.411381912E1,-8.810662031E-1
1.967637078E1,8.825027466E0,1.344344234E1,-1.436520964E-1
1.968638040E1,8.588001251E0,1.336443424E1,1.005564705E-1
1.969639024E1,9.131484985E0,1.364455509E1,-5.530605912E-1
1.970636955E1,8.731653214E0,1.352484512E1,-1.271321058E0
1.971637940E1,7.161057472E0,1.319683933E1,-1.699883223E0
1.972638901E1,5.389348030E0,1.272518158E1,-2.104503393E0
1.973636832E1,3.938461781E0,1.212902546E1,-2.207453966E0
1.974637816E1,2.499546528E0,1.153526402E1,-1.733402014E0
1.975638778E1,1.230619669E0,1.092953110E1,-7.350199223E-1
1.976636709E1,4.165911078E-1,1.082658005E1,3.351882398E-1
1.977637693E1,-2.873042040E-2,1.080263805E1,1.496376038E0
1.978638655E1,-2.274491638E-1,1.087446404E1,2.825158119E0
1.979639640E1,-1.221042871E-1,1.088643551E1,4.149151325E0
1.980637570E1,1.819593310E-1,1.075714779E1,5.310339451E0
1.981638532E1,6.272808313E-1,1.075714779E1,6.375759125E0
1.982639516E1,1.939303398E0,1.087446404E1,7.098807812E0
1.983637447E1,4.003105164E0,1.103008747E1,7.153874874E0
1.984638409E1,6.761225700E0,1.114979744E1,6.569689274E0
1.985639393E1,9.603142738E0,1.168609810E1,5.657498837E0
1.986637324E1,1.124317074E1,1.285446930E1,4.841075897E0
1.987638286E1,1.260307789E1,1.477701283E1,4.747702122E0
1.988639270E1,1.435323906E1,1.778652382E1,5.887341976E0
1.989637201E1,1.719515610E1,2.121981049E1,6.890512466E0
1.990638186E1,2.473689270E1,2.450226021E1,6.840234280E0
1.991639147E1,3.363613892E1,2.714067078E1,5.647922039E0
1.992637078E1,3.660734558E1,2.700659561E1,1.893813491E0
1.993638063E1,3.366726303E1,2.343205261E1,-3.679888010E0
1.994639024E1,2.933615303E1,2.076251793E1,-7.414842606E0
1.995636955E1,2.659000397E1,1.708741760E1,-9.761159897E0
1.996637917E1,2.275688744E1,1.374511242E1,-1.071884060E1
1.997638901E1,1.802833939E1,9.445125580E0,-1.059434223E1
1.998636832E1,1.331655025E1,5.760449409E0,-8.781931877E0
1.999637817E1,9.334992409E0,3.134010077E0,-6.174646378E0
2.000638778E1,7.515398979E0,1.149216771E0,-4.077325344E0
2.001636709E1,6.924031258E0,-5.746083856E-1,-2.456450939E0
2.002637693E1,5.980715752E0,-2.035071373E0,-1.022324085E0
2.003638655E1,4.970362663E0,-3.854664803E0,-1.268926859E-1
2.004639640E1,3.936067581E0,-5.714959621E0,3.998316824E-1
2.005637570E1,3.083731890E0,-6.969521046E0,5.626373887E-1
2.006638532E1,2.384624958E0,-8.197746277E0,5.363011956E-1
2.007639516E1,2.209848166E0,-9.239224434E0,4.381389022E-1
2.008637447E1,2.542642117E0,-9.856928825E0,6.943184882E-2
2.009638409E1,2.968810081E0,-1.022324085E1,-7.062895298E-1
2.010639393E1,3.093308687E0,-1.058237171E1,-2.087743998E0
2.011637324E1,2.870647907E0,-1.108994198E1,-4.058171749E0
2.012638286E1,2.492363930E0,-1.141555405E1,-5.882553577E0
2.013639270E1,1.395819545E0,-1.179623222E1,-7.316680431E0
2.014637201E1,-3.543418646E-1,-1.234689808E1,-7.943961143E0
2.015638163E1,-2.106897593E0,-1.253843403E1,-7.587224960E0
2.016639147E1,-3.409343243E0,-1.247618484E1,-6.435614109E0
2.017637078E1,-3.430891037E0,-1.255758762E1,-4.690241337E0
2.018638063E1,-1.405396342E0,-1.195185471E1,-2.698265314E0
2.019639024E1,2.430114746E0,-1.074038887E1,-1.592144132E0
2.020636955E1,5.303156853E0,-9.279925346E0,-1.414973259E0
2.021637917E1,6.246472359E0,-7.864952564E0,-1.810016513E0
2.022638901E1,4.484339714E0,-6.349422932E0,-2.767697096E0
2.023636832E1,8.379706144E-1,-5.046977043E0,-4.376600742E0
2.024637817E1,-3.093308687E0,-3.811569214E0,-6.756437302E0
2.025638778E1,-4.273650169E0,-1.426944256E0,-9.423578262E0
2.026636709E1,-9.097966552E-1,1.285686255E0,-1.202846909E1
2.027637694E1,6.947973251E0,5.983109951E0,-1.257434750E1
2.028638655E1,2.239296913E1,1.104205799E1,-1.195185471E1
2.029639640E1,4.132631683E1,1.782962036E1,-8.446743965E0
2.030637570E1,5.548801804E1,2.628594017E1,-1.958456993E0
2.031638532E1,5.614881897E1,3.109589195E1,3.375824451E0
2.032639517E1,4.530787277E1,3.179260445E1,6.636727333E0
2.033637447E1,3.137601280E1,2.939361382E1,7.797914982E0
2.034638409E1,2.230438232E1,2.649423599E1,7.501033783E0
2.035639394E1,1.677617073E1,2.364752960E1,7.153874874E0
2.036637324E1,1.316810894E1,2.136824989E1,7.079654217E0
2.037638286E1,1.021127033E1,1.937627411E1,7.182605267E0
2.038639270E1,7.666234016E0,1.735078049E1,7.201758862E0
2.039637201E1,5.616796970E0,1.561977196E1,6.641515732E0
2.040638163E1,3.658340216E0,1.389115810E1,4.982333660E0
2.041639147E1,2.178723574E0,1.262462521E1,3.505111217E0
2.042637078E1,1.244984865E0,1.162863731E1,2.130839586E0
2.043638063E1,7.445967197E-1,1.091037750E1,8.667010069E-1
2.044639024E1,2.178723514E-1,1.028788471E1,1.556231081E-1
2.045636955E1,-2.346317619E-1,9.586383820E0,-1.532289088E-1
2.046637917E1,-9.624691010E-1,8.973467827E0,-1.029506698E-1
2.047638901E1,-1.620874524E0,8.403648376E0,2.250549644E-1
2.048636832E1,-1.872265697E0,8.204929352E0,5.746083856E-1
2.049678192E1,-2.173935175E0,8.341399193E0,1.110909581E0
2.050679154E1,-2.633621931E0,8.710105896E0,1.814804912E0
2.051677085E1,-2.130839586E0,9.303867340E0,2.451662540E0
2.052678069E1,-8.283938169E-1,1.009156036E1,3.404554844E0
2.053679031E1,9.576806426E-2,1.059434223E1,4.577713490E0
2.054680015E1,5.051765442E-1,1.043393135E1,5.714959621E0
2.055677946E1,4.812345505E-1,9.892841339E0,6.847416878E0
2.056678908E1,3.088520169E-1,9.126696587E0,8.183381081E0
2.057679892E1,6.488286853E-1,8.722076416E0,9.821015358E0
2.058677823E1,2.092532396E0,8.803479195E0,1.110670185E1
2.059678785E1,4.630385876E0,9.172186852E0,1.142034245E1
2.060679769E1,7.398083210E0,9.945513725E0,1.052012253E1
2.061677700E1,1.004846478E1,1.173637676E1,8.995016098E0
2.062678662E1,1.248815632E1,1.562695408E1,7.666234016E0
2.063679646E1,1.620635223E1,2.016157341E1,7.015010834E0
2.064677577E1,2.263957214E1,2.446874046E1,5.877765179E0
2.065678562E1,3.071760750E1,2.837129021E1,3.478775024E0
2.066679523E1,3.575979614E1,3.057156181E1,-3.303998411E-1
2.067677454E1,3.765121460E1,2.815581131E1,-6.090848923E0
2.068678415E1,3.465367508E1,2.499307060E1,-1.020408726E1
2.069679400E1,3.152206039E1,2.110488892E1,-1.186805820E1
2.070677331E1,2.786371994E1,1.671152878E1,-1.142991924E1
2.071678315E1,2.252464867E1,1.207395935E1,-9.801861763E0
2.072679277E1,1.700601387E1,7.819462776E0,-7.536946774E0
2.073677208E1,1.192551899E1,4.175487995E0,-5.080495834E0
2.074678192E1,7.287950039E0,1.551442742E0,-2.461239338E0
2.075679154E1,4.673481941E0,-5.267243832E-2,1.197100878E-1
2.076677085E1,4.058171749E0,-1.335964561E0,1.510741234E0
2.077678069E1,3.852270603E0,-2.260126352E0,1.326387763E0
2.078679031E1,3.955221176E0,-3.672705412E0,4.453215301E-1
2.079680015E1,3.620033026E0,-5.480327606E0,-7.398083210E-1
2.080677946E1,3.009511471E0,-7.343016624E0,-2.011129379E0
2.081678908E1,3.093308687E0,-9.277531624E0,-3.083731890E0
2.082679892E1,3.663128614E0,-1.069968700E1,-3.277662039E0
2.083677823E1,4.144362926E0,-1.184172153E1,-3.162740469E0
2.084678785E1,3.833117008E0,-1.272039318E1,-3.205836058E0
2.085679769E1,2.451662540E0,-1.349132633E1,-3.138798475E0
2.086677700E1,3.495534360E-1,-1.415452003E1,-3.677493811E0
2.087678662E1,-2.561795712E0,-1.477461910E1,-4.912901878E0
2.088679646E1,-5.475539207E0,-1.505713463E1,-5.875370979E0
2.089677577E1,-7.189787865E0,-1.510501862E1,-6.404489517E0
2.090678539E1,-6.952761650E0,-1.491108799E1,-6.308721542E0
2.091679523E1,-4.175487995E0,-1.426225948E1,-5.315127850E0
2.092677454E1,4.548983276E-2,-1.327824306E1,-3.797203779E0
