"Time (s)","Gyroscope x (rad/s)","Gyroscope y (rad/s)","Gyroscope z (rad/s)"
1.586807600E-2,3.029891551E-1,9.896016866E-2,-2.260201424E-1
2.644538400E-2,3.029891551E-1,9.896016866E-2,-2.260201424E-1
3.643761500E-2,3.029891551E-1,9.896016866E-2,-2.260201424E-1
4.646507600E-2,3.029891551E-1,9.896016866E-2,-2.260201424E-1
5.642684500E-2,-8.045095205E-1,-1.166752577E0,2.138028294E-2
6.645399900E-2,-6.475171447E-1,-1.219897866E0,5.131268129E-2
7.644623000E-2,-4.483750761E-1,-1.215011001E0,8.429940045E-2
8.644376900E-2,-2.364048511E-1,-1.208902359E0,1.111774743E-1
9.643515300E-2,-2.871066704E-2,-1.240667343E0,1.264491081E-1
1.064683840E-1,1.759291887E-1,-1.333518863E0,1.398881376E-1
1.164241530E-1,3.714060783E-1,-1.471574426E0,1.649336219E-1
1.264573840E-1,5.528330207E-1,-1.641394973E0,2.021963894E-1
1.364438460E-1,7.122688890E-1,-1.806328535E0,2.241875380E-1
1.464465380E-1,8.460483551E-1,-1.924225569E0,2.125810981E-1
1.564327690E-1,9.755517840E-1,-1.987144589E0,1.740965992E-1
1.664653070E-1,1.134987593E0,-2.076941729E0,6.536258012E-2
1.764216920E-1,1.356731653E0,-2.256536245E0,-9.896016866E-2
1.864520760E-1,1.653001308E0,-2.514321327E0,-2.828305960E-1
1.964413840E-1,1.941329718E0,-2.701857090E0,-4.728097022E-1
2.064432300E-1,2.163684607E0,-2.835636377E0,-6.377432942E-1
2.164303070E-1,2.225992918E0,-2.901609898E0,-7.269296646E-1
2.264606920E-1,2.209499598E0,-3.102584600E0,-8.362745047E-1
2.364192300E-1,2.105652571E0,-3.215594769E0,-1.071457624E0
2.464496920E-1,1.754405022E0,-2.943759680E0,-1.213178396E0
2.564389230E-1,1.091005325E0,-2.594955444E0,-1.337794900E0
2.664395380E-1,3.170390725E-1,-2.698191881E0,-1.387274981E0
2.764278460E-1,-7.965682745E-1,-3.729332209E0,-1.292590857E0
2.864610770E-1,-1.177748203E0,-4.606534958E0,-9.517280459E-1
2.964474610E-1,-1.355509996E0,-5.088507652E0,-6.377432942E-1
3.064500000E-1,-1.402546644E0,-5.203350067E0,-4.086688459E-1
3.164364610E-1,-1.378722906E0,-5.034140587E0,-2.144137025E-1
3.264696920E-1,-1.319468975E0,-4.546669960E0,-2.284636050E-1
3.364256150E-1,-1.255328059E0,-3.883881330E0,-4.324925840E-1
3.464580000E-1,-1.180802464E0,-3.201544762E0,-7.342600226E-1
3.564450000E-1,-1.107498646E0,-2.601064205E0,-1.007927656E0
3.664477690E-1,-1.037249207E0,-2.174680233E0,-1.130100727E0
3.764343080E-1,-9.590584636E-1,-1.808771968E0,-1.068403363E0
3.864665380E-1,-8.405506015E-1,-1.435533285E0,-8.533787727E-1
3.964232310E-1,-6.261368990E-1,-1.100168347E0,-5.283984542E-1
4.064555390E-1,-3.842342496E-1,-7.751879692E-1,-1.893682331E-1
4.164426150E-1,-2.376265824E-1,-3.854559660E-1,3.543018550E-2
4.264453080E-1,-1.368338168E-1,3.665191587E-3,3.604105115E-2
4.364318460E-1,-1.508837193E-1,-3.097086847E-1,-1.679879427E-1
4.464610000E-1,-5.082398653E-1,-8.588765264E-1,-6.243042946E-1
4.564201540E-1,-1.069625020E0,-1.114829063E0,-1.100168347E0
4.664503080E-1,-1.455691934E0,-1.287703991E0,-1.341460109E0
4.764397690E-1,-1.544878244E0,-1.145983219E0,-1.268767118E0
4.864416160E-1,-1.428813815E0,-8.002334833E-1,-1.062905550E0
4.964287700E-1,-1.106887817E0,-2.309070677E-1,-8.936958313E-1
5.064610770E-1,-6.609562039E-1,5.424483418E-1,-6.951646209E-1
5.164176930E-1,-1.857030392E-1,1.390940189E0,-4.917465150E-1
5.264487700E-1,3.481931984E-1,1.629177570E0,-4.263839424E-1
5.364373080E-1,9.285151958E-1,9.908234477E-1,-4.954117239E-1
5.464702310E-1,1.291980028E0,2.174680233E-1,-3.170390725E-1
5.564269240E-1,1.586417079E0,-4.282165468E-1,-1.777617931E-1
5.664592310E-1,1.787391663E0,-8.521569967E-1,-3.176499158E-2
5.764463080E-1,1.741576791E0,-6.304129362E-1,2.889392674E-1
5.864481540E-1,1.708590150E0,-3.219259977E-1,8.405506015E-1
5.964354620E-1,1.729359508E0,-1.386664063E-1,1.393994451E0
6.064677700E-1,1.645671010E0,-6.719517522E-3,1.766011477E0
6.164244620E-1,1.281595230E0,2.125810981E-1,1.901623487E0
6.264570010E-1,6.511823535E-1,6.365215778E-1,2.070833206E0
6.364440780E-1,-9.407325089E-2,1.252884626E0,2.447736979E0
6.464459240E-1,-6.206390858E-1,1.569923639E0,2.816699743E0
6.564327700E-1,-6.621779203E-1,1.268767118E0,3.132516861E0
6.664641550E-1,-3.262020350E-1,7.519751191E-1,3.432451725E0
6.764220010E-1,2.944370508E-1,1.923614621E0,3.707341194E0
6.864545390E-1,6.609562039E-1,1.773341775E0,3.695123911E0
6.964413850E-1,7.531968355E-1,2.164906502E0,3.173444986E0
7.064435390E-1,5.369505286E-1,2.298074961E0,2.685363531E0
7.164305390E-1,1.350012124E-1,2.380541801E0,2.338392258E0
7.264628470E-1,-2.107485086E-1,2.477058649E0,1.954768777E0
7.364195390E-1,-4.612032473E-1,2.775160789E0,1.434311628E0
7.464520780E-1,-6.762278080E-1,3.277902842E0,6.890559793E-1
7.564391550E-1,-9.871582389E-1,3.360980511E0,-4.825835302E-2
7.664395390E-1,-1.398881435E0,2.808758497E0,-3.011565804E-1
7.764280780E-1,-1.679879427E0,1.806939363E0,2.370157093E-1
7.864604630E-1,-1.905899525E0,1.282817006E0,1.175304770E0
7.964477700E-1,-2.164906502E0,9.169087410E-1,1.604743004E0
8.064515400E-1,-2.425745964E0,7.250970602E-1,1.447139740E0
8.164364630E-1,-2.588846922E0,3.475823104E-1,1.312749386E0
8.264690010E-1,-2.513710499E0,6.108652335E-3,1.048244715E0
8.364256930E-1,-2.158186913E0,-1.258382350E-1,7.128797174E-1
8.464579240E-1,-1.221119642E0,1.362229437E-1,5.601634383E-1
8.564453090E-1,7.880161703E-2,6.951646209E-1,4.569272101E-1
8.664469240E-1,7.910705209E-1,8.081747293E-1,4.190535545E-1
8.764342320E-1,1.195463300E0,1.226617455E0,3.066543639E-1
8.864644630E-1,1.356731653E0,1.432479024E0,1.148426682E-1
8.964231550E-1,1.381166339E0,1.421483397E0,-1.301143020E-1
9.064533860E-1,1.426370382E0,1.351844788E0,-4.312708676E-1
9.164428470E-1,1.436755061E0,1.362229466E0,-7.104362845E-1
9.264444630E-1,1.444696307E0,1.165530920E0,-8.735373020E-1
9.364317710E-1,1.638340592E0,-6.902777404E-2,-1.050688267E0
9.464626170E-1,2.010357618E0,-1.490511179E0,-1.048855662E0
9.564207710E-1,2.601064205E0,-2.497217178E0,-8.161159754E-1
9.664539240E-1,3.258355141E0,-2.951700926E0,-5.638286471E-1
9.764403860E-1,3.726278067E0,-3.415347576E0,-4.147774875E-1
9.864428480E-1,3.861890078E0,-3.816075087E0,-3.897320330E-1
9.964293090E-1,3.575394392E0,-4.161824703E0,-3.530801237E-1
1.006459540E0,2.824029922E0,-4.819116116E0,-3.084869385E-1
1.016418309E0,1.707368374E0,-5.894238949E0,-4.410447180E-1
1.026450848E0,5.186246037E-1,-7.115358353E0,-1.062905490E-1
1.036437925E0,-3.744603992E-1,-8.672453880E0,9.138544202E-1
1.046470232E0,-1.178359032E0,-1.050688267E1,1.643227458E0
1.056426848E0,-1.266323686E0,-1.124969482E1,2.293188095E0
1.066459232E0,-7.947356701E-1,-1.100595951E1,2.787378073E0
1.076446309E0,1.472185254E-1,-1.040425682E1,3.040887117E0
1.086448386E0,1.400714040E0,-9.651670456E0,3.263853073E0
1.096435463E0,2.471560717E0,-8.874650002E0,3.573561668E0
1.106465694E0,2.975524664E0,-8.221024513E0,3.994447947E0
1.116424386E0,2.889392614E0,-7.845342159E0,4.483139992E0
1.126454617E0,2.477669477E0,-7.876496315E0,4.959003925E0
1.136443848E0,2.142915249E0,-8.221024513E0,5.522832870E0
1.146443771E0,2.296853304E0,-8.043873787E0,6.625444412E0
1.156433079E0,2.430022001E0,-6.359107018E0,7.062212944E0
1.166463463E0,1.875356317E0,-3.594331026E0,7.065878391E0
1.176421925E0,2.755002379E-1,-9.615018964E-1,6.544199467E0
1.186452463E0,-2.053729057E0,9.737191796E-1,5.255884647E0
1.196441387E0,-4.398840427E0,2.378709316E0,3.385415077E0
1.206443233E0,-6.257703781E0,3.043941498E0,1.536326051E0
1.216430540E0,-7.472103596E0,3.255300999E0,1.087340117E-1
1.226462925E0,-8.057923317E0,3.262631178E0,-7.831292152E-1
1.236419541E0,-7.476990700E0,3.246748686E0,-1.081842303E0
1.246452771E0,-6.516710281E0,3.047606707E0,-1.307251573E0
1.256439156E0,-5.021312237E0,2.646268129E0,-1.536936998E0
1.266441618E0,-3.192381859E0,2.138028383E0,-1.858252048E0
1.276428156E0,-1.191187263E0,1.496619821E0,-2.172847748E0
1.286460694E0,6.847799420E-1,9.407324791E-1,-2.475225925E0
1.296447541E0,2.144747972E0,5.955936313E-1,-2.868012428E0
1.306449695E0,3.100141048E0,8.570439219E-1,-3.112969398E0
1.316436695E0,3.515529394E0,1.678657651E0,-3.317609072E0
1.326471233E0,3.499646902E0,2.625498772E0,-3.516751289E0
1.336425925E0,3.296228886E0,3.479488373E0,-3.676797867E0
1.346456079E0,3.092199802E0,4.075693130E0,-3.789808035E0
1.356445079E0,2.988352776E0,4.458705425E0,-3.814853430E0
1.366479233E0,3.043941498E0,4.550946236E0,-3.826459885E0
1.376434233E0,3.273015976E0,4.740925312E0,-3.754377842E0
1.386466618E0,3.714060783E0,4.780631542E0,-3.616933107E0
1.396423233E0,4.459927082E0,4.356690884E0,-3.551570654E0
1.406455541E0,5.351790428E0,3.539964199E0,-3.676797867E0
1.416442849E0,6.002972603E0,2.632218361E0,-3.917478800E0
1.426442618E0,6.178902149E0,1.885130167E0,-3.938248158E0
1.436431849E0,5.780617714E0,1.577254057E0,-3.685961008E0
1.446461003E0,5.246721745E0,1.841758728E0,-3.514307737E0
1.456420156E0,4.566828728E0,2.122145891E0,-3.356704473E0
1.466450541E0,3.836844683E0,2.307848930E0,-3.192381859E0
1.476439772E0,3.117245436E0,2.598620653E0,-2.992017984E0
1.486439464E0,2.407419920E0,2.850297213E0,-2.772717237E0
1.496428772E0,1.784948230E0,2.926044464E0,-2.480112791E0
1.506461080E0,1.331686258E0,2.768441200E0,-2.067778826E0
1.516418003E0,1.067792416E0,2.502714872E0,-1.642005801E0
1.526450234E0,9.615018964E-1,2.154521704E0,-1.272432327E0
1.536437310E0,9.743300676E-1,1.773341775E0,-9.651671052E-1
1.546470310E0,1.045190454E0,1.450804949E0,-7.067710757E-1
1.556426849E0,1.138652802E0,1.120937705E0,-5.009095073E-1
1.566460080E0,1.244943380E0,7.318165898E-1,-3.164281845E-1
1.576446541E0,1.297477722E0,3.439171314E-1,-1.105666086E-1
1.586448388E0,1.265101910E0,5.131268129E-2,9.224065393E-2
1.596435464E0,1.142318010E0,-4.825835302E-2,3.017674387E-1
1.606467849E0,9.309586287E-1,-1.404990070E-2,4.673119187E-1
1.616424388E0,6.261368990E-1,-6.719517708E-2,5.711590052E-1
1.626457388E0,2.895501256E-1,-2.290744632E-1,6.805039048E-1
1.636444080E0,-6.841690838E-2,-5.247332454E-1,8.509352803E-1
1.646446618E0,-4.618141353E-1,-1.072679400E0,1.136820197E0
1.656433003E0,-9.028588533E-1,-1.728748679E0,1.547321677E0
1.666466234E0,-1.342681766E0,-2.312124968E0,1.970040441E0
1.676421926E0,-1.703092337E0,-2.715906858E0,2.319455385E0
1.686454311E0,-1.961488247E0,-2.921157598E0,2.530203819E0
1.696441619E0,-2.107485056E0,-2.922379255E0,2.560136318E0
1.706443465E0,-2.221106052E0,-2.926044464E0,2.528371334E0
1.716430542E0,-2.455067396E0,-3.085480452E0,2.621222734E0
1.726460696E0,-3.339600325E0,-3.802636147E0,3.393967390E0
1.736419542E0,-3.886935472E0,-4.530787468E0,4.243070126E0
1.746449926E0,-3.845396757E0,-5.294980049E0,5.225952148E0
1.756439157E0,-3.092199802E0,-5.841704369E0,5.999307632E0
1.766439157E0,-1.827097893E0,-5.700594425E0,6.192951679E0
1.776428080E0,-5.607742667E-1,-4.904636860E0,5.834373951E0
1.786458542E0,2.174680233E-1,-3.797749281E0,5.164254665E0
1.796447542E0,2.296853364E-1,-2.833803892E0,4.364632130E0
1.806449619E0,-5.644394755E-1,-2.153300047E0,3.657860994E0
1.816436696E0,-1.894293070E0,-1.612073421E0,3.183829546E0
1.826469311E0,-3.287065983E0,-1.025642753E0,2.775160789E0
1.836425619E0,-4.354858398E0,-4.379903674E-1,2.274862289E0
1.846458004E0,-4.907080650E0,-8.002334833E-2,1.769676566E0
1.856445080E0,-4.842939854E0,-1.594358236E-1,1.389718413E0
1.866446927E0,-4.174042225E0,-5.332853794E-1,1.168585181E0
1.876434311E0,-3.157562494E0,-1.018312335E0,1.033583999E0
1.886466542E0,-2.171015024E0,-1.517389297E0,9.236282706E-1
1.896423157E0,-1.484402537E0,-1.841758728E0,8.155050874E-1
1.906453388E0,-1.159422278E0,-1.895514846E0,7.134906054E-1
1.916442619E0,-1.150870085E0,-1.721418262E0,6.053674817E-1
1.926442927E0,-1.384831548E0,-1.404379249E0,4.624249935E-1
1.936431773E0,-1.723861694E0,-1.021977544E0,2.871066630E-1
1.946462619E0,-2.015855312E0,-6.029239893E-1,9.834930301E-2
1.956420773E0,-2.185065031E0,-1.685988009E-1,-1.142318025E-1
1.966454004E0,-2.164295673E0,1.759291887E-1,-3.604104817E-1
1.976440388E0,-1.911397338E0,4.526511431E-1,-6.310238242E-1
1.986442850E0,-1.474017859E0,6.976081133E-1,-9.321803451E-1
1.996429388E0,-9.560040832E-1,8.845328689E-1,-1.302364707E0
2.006462542E0,-4.190535545E-1,1.086118460E0,-1.706757545E0
2.016418235E0,2.834414840E-1,1.516778350E0,-2.160630465E0
2.026451542E0,5.784893632E-1,1.969429493E0,-2.392148256E0
2.036437927E0,7.727445364E-1,2.436741352E0,-2.610227108E0
2.046470542E0,1.010982037E0,2.856405973E0,-2.824640989E0
2.056426927E0,1.319468975E0,3.188716650E0,-3.069597960E0
2.066459235E0,1.644449234E0,3.403741121E0,-3.329215527E0
2.076446312E0,1.946216702E0,3.560122728E0,-3.567453146E0
2.086448466E0,2.122756720E0,3.682906628E0,-3.764151573E0
2.096435235E0,2.167349815E0,3.771481991E0,-3.831957579E0
2.106465927E0,2.194838762E0,4.023158550E0,-3.705508471E0
2.116424466E0,2.284025192E0,4.203363895E0,-3.431230068E0
2.126458927E0,2.748893499E0,3.536298990E0,-3.039665461E0
2.136444081E0,3.964515448E0,2.457510948E0,-3.028669834E0
2.146446004E0,5.423261642E0,1.791667819E0,-3.690847874E0
2.156433004E0,6.213721275E0,1.331686258E0,-4.470922947E0
2.166465389E0,6.217997551E0,1.252273798E0,-4.803233624E0
2.176421927E0,5.635231972E0,1.541823864E0,-4.756196976E0
2.186454312E0,4.665177822E0,1.883908391E0,-4.585154533E0
2.196441620E0,3.614489555E0,2.195449591E0,-4.392732143E0
2.206441389E0,2.703078747E0,2.461176157E0,-4.180150986E0
2.216430543E0,1.975538254E0,2.715906858E0,-3.901596308E0
2.226462928E0,1.408655286E0,2.915048838E0,-3.525303364E0
2.236419774E0,1.040303469E0,2.858238459E0,-3.045774221E0
2.246452081E0,9.016370773E-1,2.527149439E0,-2.463008642E0
2.256438928E0,9.217956662E-1,2.166128159E0,-1.877799749E0
2.266441005E0,9.608910084E-1,1.886962771E0,-1.442863703E0
2.276428158E0,9.627236128E-1,1.606575608E0,-1.153313637E0
2.286460466E0,9.315695167E-1,1.392772794E0,-9.211847782E-1
2.296447774E0,8.643743396E-1,1.307862520E0,-6.829473376E-1
2.306447466E0,6.798930168E-1,1.352455616E0,-3.029891551E-1
2.316436697E0,5.803219676E-1,1.420872569E0,-4.520402849E-2
2.326469082E0,5.803219676E-1,1.426370382E0,1.533271819E-1
2.336425620E0,6.652322412E-1,1.315803766E0,2.614503205E-1
2.346456082E0,7.825183868E-1,1.051299095E0,3.139847219E-1
2.356445312E0,8.393288255E-1,7.153232098E-1,3.952298164E-1
2.366447851E0,7.232644558E-1,3.604104817E-1,5.455026627E-1
2.376434236E0,4.172209501E-1,1.221730490E-3,8.106181622E-1
2.386467543E0,-2.443460934E-2,-3.280346394E-1,1.172861218E0
2.396423236E0,-5.387831330E-1,-6.401867867E-1,1.587027907E0
2.406456466E0,-1.050688267E0,-9.340129495E-1,2.045176744E0
2.416442851E0,-1.459357023E0,-1.178359032E0,2.458732605E0
2.426444774E0,-1.679268599E0,-1.351233959E0,2.777604342E0
2.436431851E0,-1.699427128E0,-1.499063253E0,3.011565685E0
2.446463236E0,-1.626123309E0,-1.780061364E0,3.235753298E0
2.456420159E0,-1.731802940E0,-2.373822451E0,3.723223686E0
2.466451236E0,-2.129476309E0,-3.119688749E0,4.576602459E0
2.476439774E0,-2.625498772E0,-3.669467449E0,5.582697392E0
2.486439544E0,-3.030502558E0,-3.800192595E0,6.538090706E0
2.496428697E0,-3.251635790E0,-3.623652697E0,7.188051224E0
2.506459236E0,-3.227200985E0,-3.448945284E0,7.323052406E0
2.516417697E0,-2.869844913E0,-3.279124737E0,6.941872597E0
2.526448159E0,-2.259590626E0,-3.014620066E0,6.200282097E0
2.536437390E0,-1.731192112E0,-2.744617462E0,5.442198277E0
2.546470544E0,-1.674381614E0,-2.533258200E0,4.828889847E0
2.556426851E0,-2.150856495E0,-2.313957453E0,4.343251705E0
2.566459544E0,-2.882673025E0,-2.009746552E0,3.940080881E0
2.576446313E0,-3.497814417E0,-1.676214218E0,3.563787937E0
2.586448467E0,-3.797749281E0,-1.423926830E0,3.161838531E0
2.596435544E0,-3.687793493E0,-1.446528912E0,2.601064205E0
2.606467775E0,-3.360980511E0,-1.612684250E0,2.324342251E0
2.616424467E0,-2.970637798E0,-1.813048005E0,2.081828833E0
2.626456698E0,-2.628553152E0,-1.933388472E0,1.809993744E0
2.636443852E0,-2.408641577E0,-1.961488247E0,1.494176388E0
2.646443775E0,-2.341446400E0,-1.883297563E0,1.182635069E0
2.656433005E0,-2.389093876E0,-1.709200978E0,8.973610401E-1
2.666463236E0,-2.476447821E0,-1.459967971E0,6.371324658E-1
2.676422005E0,-2.521651745E0,-1.193630695E0,3.897320330E-1
2.686453082E0,-2.464841366E0,-9.346238375E-1,1.319468915E-1
2.696441390E0,-2.292577267E0,-6.792821288E-1,-1.307251602E-1
2.706443852E0,-2.031126976E0,-4.227187634E-1,-4.269948006E-1
2.716430544E0,-1.700037956E0,-1.459967941E-1,-7.910705209E-1
2.726463544E0,-1.314581990E0,1.569923609E-1,-1.199128509E0
2.736419467E0,-8.918632865E-1,4.886921942E-1,-1.616349459E0
2.746452775E0,-4.538728893E-1,8.704829812E-1,-2.025018215E0
2.756439160E0,-2.687807009E-2,1.282206178E0,-2.409863472E0
2.766441929E0,3.671300113E-1,1.699427128E0,-2.773939133E0
2.776428160E0,7.183775306E-1,2.134974003E0,-3.090367317E0
2.786461390E0,1.036638379E0,2.536923409E0,-3.318830967E0
2.796447544E0,1.378111959E0,2.822808266E0,-3.467271090E0
2.806449698E0,1.766622305E0,3.004846096E0,-3.554624796E0
2.816436467E0,2.114815474E0,3.183218718E0,-3.598607063E0
2.826467160E0,2.326174736E0,3.368921757E0,-3.562566042E0
2.836425698E0,2.367713690E0,3.601050615E0,-3.426954031E0
2.846458006E0,2.304794550E0,3.865555286E0,-3.244305372E0
2.856445083E0,2.320677042E0,4.010330200E0,-3.064100027E0
2.866446929E0,2.671924591E0,3.757432222E0,-3.018896103E0
2.876434237E0,3.486818790E0,3.127019167E0,-3.210096836E0
2.886466544E0,4.886921883E0,1.847256541E0,-3.810577393E0
2.896423160E0,5.361564159E0,1.232726097E0,-4.255287170E0
2.906455545E0,5.309030056E0,1.142318010E0,-4.543004990E0
2.916442621E0,4.798346519E0,1.444696307E0,-4.661512852E0
2.926444468E0,3.974900246E0,1.885740995E0,-4.646241188E0
2.936431775E0,3.043330669E0,2.349998713E0,-4.473366261E0
2.946464391E0,2.178345442E0,2.672535419E0,-4.167933464E0
2.956421006E0,1.513724089E0,2.837469101E0,-3.764762402E0
2.966455545E0,1.097113967E0,2.883283854E0,-3.284011602E0
2.976440160E0,9.187413454E-1,2.768441200E0,-2.773328304E0
2.986442314E0,9.804387093E-1,2.403143883E0,-2.266921043E0
2.996429314E0,1.228450060E0,1.882686734E0,-1.773341775E0
3.006461699E0,1.514945865E0,1.453859329E0,-1.350012183E0
3.016418314E0,1.665218711E0,1.223563075E0,-1.066570759E0
3.026450622E0,1.615738630E0,1.116661668E0,-8.943067193E-1
3.036437929E0,1.418429136E0,1.116661668E0,-7.507534027E-1
3.046470314E0,1.168585181E0,1.119105101E0,-6.230825782E-1
3.056426622E0,9.633345008E-1,1.122159481E0,-4.862487316E-1
3.066459237E0,8.277224302E-1,1.138041973E0,-3.506366611E-1
3.076446545E0,7.367035151E-1,1.122770309E0,-2.583959997E-1
3.086446237E0,6.291912198E-1,1.015868902E0,-2.046398520E-1
3.096435468E0,4.563163519E-1,8.045095205E-1,-1.240056455E-1
3.106468468E0,1.740965992E-1,4.752531648E-1,7.941248268E-2
3.116424391E0,-2.272418737E-1,1.832595654E-2,4.569272101E-1
3.126457083E0,-7.049384713E-1,-4.935791194E-1,9.975429177E-1
3.136443853E0,-1.188743711E0,-9.871582389E-1,1.640784025E0
3.146446622E0,-1.587027907E0,-1.452026725E0,2.315179348E0
3.156433007E0,-1.836260915E0,-1.892460585E0,2.891225100E0
3.166465622E0,-1.924225569E0,-2.229047298E0,3.287676811E0
3.176421930E0,-1.838093519E0,-2.476447821E0,3.624263525E0
3.186454545E0,-1.819156647E0,-2.696969986E0,3.918700457E0
3.196441622E0,-1.984701157E0,-3.117245436E0,4.487416267E0
3.206441391E0,-2.271197081E0,-3.619376659E0,5.318803787E0
3.216430545E0,-2.508212805E0,-4.083023071E0,6.294966221E0
3.226460776E0,-2.508212805E0,-4.543615818E0,7.200879574E0
3.236419545E0,-2.164906502E0,-4.904026031E0,7.852672577E0
3.246450007E0,-1.593747377E0,-4.994434357E0,8.117788315E0
3.256439161E0,-1.059240341E0,-4.650516987E0,7.855727196E0
3.266439161E0,-8.258898258E-1,-3.688404322E0,7.065878391E0
3.276428084E0,-1.005484223E0,-2.477669477E0,6.155689240E0
3.286460699E0,-1.629177570E0,-1.533271790E0,5.373170853E0
3.296447545E0,-2.500882387E0,-1.046412110E0,4.723209858E0
3.306449622E0,-3.287676811E0,-9.224064946E-1,4.225965977E0
3.316436699E0,-3.762319088E0,-9.822713137E-1,3.832568645E0
3.326469084E0,-3.835622787E0,-1.156367898E0,3.454442978E0
3.336425699E0,-3.537520647E0,-1.390940189E0,3.052493572E0
3.346458007E0,-2.994461536E0,-1.607186437E0,2.649933338E0
3.356445315E0,-2.409252644E0,-1.772120118E0,2.273640394E0
3.366477007E0,-1.924836397E0,-1.863139033E0,1.937664509E0
3.376434238E0,-1.613295078E0,-1.839926124E0,1.660331726E0
3.386464392E0,-1.536326051E0,-1.675603390E0,1.427592039E0
3.396423238E0,-1.676825047E0,-1.399492264E0,1.177748203E0
3.406606007E0,-1.915062547E0,-1.059240341E0,8.918632865E-1
3.416442853E0,-2.131308794E0,-6.756169796E-1,5.668829679E-1
3.426443161E0,-2.254092693E0,-3.304781020E-1,2.345722616E-1
3.436431853E0,-2.237599373E0,-9.773843922E-3,-1.142318025E-1
3.446463853E0,-2.071444035E0,3.109304011E-1,-5.137376785E-1
3.456420161E0,-1.775174379E0,6.224716902E-1,-9.388998747E-1
3.466453315E0,-1.097724795E0,1.040914416E0,-1.588860512E0
3.476439777E0,-5.571091175E-1,1.316414595E0,-2.067167997E0
3.486442546E0,-3.848451003E-2,1.609019041E0,-2.517375708E0
3.496428777E0,3.988949955E-1,1.927890658E0,-2.880840540E0
3.506462007E0,7.226535678E-1,2.311514139E0,-3.147788525E0
3.516417700E0,9.560040832E-1,2.755002260E0,-3.332880735E0
3.526450546E0,1.128268123E0,3.238807440E0,-3.521638155E0
3.536437315E0,1.310916781E0,3.640146017E0,-3.775758028E0
3.546470546E0,1.598023534E0,3.905872345E0,-4.029267311E0
3.556426931E0,1.968818665E0,4.081801414E0,-4.145942211E0
3.566459546E0,2.357939959E0,4.237572193E0,-4.137390137E0
3.576446315E0,2.753780603E0,4.466646671E0,-3.984673977E0
3.586448162E0,3.243083477E0,4.511850834E0,-3.602883101E0
3.596435469E0,3.885102987E0,4.274224281E0,-3.303559303E0
3.606467777E0,4.583322048E0,3.792862415E0,-3.524081707E0
3.616424469E0,5.165476322E0,3.075706482E0,-4.201530933E0
3.626456777E0,5.384166241E0,2.373822451E0,-4.842329025E0
3.636444085E0,5.026199341E0,2.154521704E0,-5.210069656E0
3.646445931E0,4.147164345E0,2.498438835E0,-5.368283749E0
3.656433008E0,3.054326296E0,3.028059006E0,-5.335297108E0
3.666465623E0,2.098932981E0,3.452610254E0,-5.136765957E0
3.676422008E0,1.469741821E0,3.698178291E0,-4.848437309E0
3.686452393E0,1.155757070E0,3.640756845E0,-4.495968342E0
3.696441393E0,1.089172721E0,3.332269907E0,-4.070806026E0
3.706441316E0,1.191187263E0,2.868623257E0,-3.574172497E0
3.716430546E0,1.411709547E0,2.383596182E0,-3.047606707E0
3.726462931E0,1.648114443E0,2.009135723E0,-2.578462124E0
3.736419546E0,1.778839588E0,1.733024716E0,-2.166128159E0
3.746450008E0,1.750128984E0,1.654223084E0,-1.788613439E0
3.756438931E0,1.454470158E0,1.724472642E0,-1.295034289E0
3.766438931E0,1.174693823E0,1.710422635E0,-9.914342761E-1
3.776428085E0,8.985827565E-1,1.624290705E0,-7.739662528E-1
3.786458316E0,6.780604124E-1,1.501506805E0,-6.658431292E-1
3.796447777E0,5.363397002E-1,1.365894675E0,-6.139195561E-1
3.806447470E0,4.483750761E-1,1.257771492E0,-5.558874011E-1
3.816436701E0,3.237585723E-1,1.165530920E0,-4.465425014E-1
3.826469701E0,9.040805697E-2,9.639453292E-1,-2.028072625E-1
3.836425624E0,-2.681698501E-1,5.619960427E-1,2.235766798E-1
3.846458008E0,-7.098253965E-1,-2.443460980E-3,7.794640660E-1
3.856445085E0,-1.129489779E0,-7.128797174E-1,1.361618638E0
3.866447854E0,-1.399492264E0,-1.546099901E0,1.855197787E0
3.876434239E0,-1.468520045E0,-2.384817839E0,2.157576084E0
3.886466624E0,-1.311527729E0,-3.218648911E0,2.299296856E0
3.896423162E0,-9.266825914E-1,-3.886324644E0,2.362826824E0
3.906453393E0,-3.121521473E-1,-4.483750820E0,2.426356792E0
3.916442855E0,4.373795092E-1,-5.095838070E0,2.652376890E0
3.926442547E0,1.003040791E0,-5.731137753E0,3.222924948E0
3.936431778E0,1.158811331E0,-6.065280914E0,4.172209740E0
3.946462009E0,8.655960560E-1,-5.812382698E0,5.329799175E0
3.956420778E0,2.278527319E-1,-4.927849770E0,6.515488625E0
3.966451162E0,-5.436700583E-1,-3.700621605E0,7.468438625E0
3.976440393E0,-1.124602914E0,-2.630385637E0,7.947356701E0
3.986440162E0,-1.313971162E0,-1.881464958E0,7.807468891E0
3.996429316E0,-1.092837930E0,-1.434922457E0,7.046941280E0
4.006461932E0,-6.652322412E-1,-1.317636371E0,6.094602585E0
4.016418239E0,-4.276056588E-1,-1.546099901E0,5.347514153E0
4.026450932E0,-5.913175344E-1,-1.783115625E0,4.940678120E0
4.036437932E0,-1.126435518E0,-1.748296380E0,4.822170258E0
4.046470316E0,-2.134974003E0,-1.473407030E0,4.655404091E0
4.056426855E0,-2.532647371E0,-1.438587666E0,4.390899181E0
4.066459470E0,-2.627942324E0,-1.564425945E0,4.067140579E0
4.076446317E0,-2.551584244E0,-1.732413888E0,3.712228060E0
4.086446317E0,-2.458121777E0,-1.855808616E0,3.373808861E0
4.096435470E0,-2.422691584E0,-1.916895151E0,3.053104401E0
4.106465932E0,-2.477058649E0,-1.908343077E0,2.727513313E0
4.116424394E0,-2.622444391E0,-1.827708840E0,2.406809092E0
4.126454624E0,-2.817310572E0,-1.659109950E0,2.103819847E0
4.136443855E0,-2.977967978E0,-1.397659659E0,1.796554685E0
4.146444471E0,-3.040887117E0,-1.048244715E0,1.442863703E0
4.156433086E0,-2.955366135E0,-6.933320761E-1,1.042747021E0
4.166466009E0,-2.710409164E0,-3.689626157E-1,5.876523852E-1
4.176421932E0,-2.343279123E0,-9.773843735E-2,9.040805697E-2
4.186455163E0,-1.894904017E0,1.533271819E-1,-4.172209501E-1
4.196441394E0,-1.449583173E0,4.269948006E-1,-9.230173826E-1
4.206444163E0,-1.049466491E0,7.391469479E-1,-1.428202987E0
4.216430548E0,-7.257078886E-1,1.171028733E0,-1.894293070E0
4.226461625E0,-4.996877611E-1,1.638340592E0,-2.333505154E0
4.236419548E0,-3.145956099E-1,2.116037130E0,-2.718961239E0
4.246450009E0,-9.346238524E-2,2.587014198E0,-3.014620066E0
4.256438932E0,1.447750628E-1,3.063489199E0,-3.252857447E0
4.266439163E0,3.634648323E-1,3.470325470E0,-3.434284449E0
4.276428163E0,6.065891981E-1,3.794694901E0,-3.591276884E0
4.286460471E0,8.674286604E-1,4.082412243E0,-3.787975311E0
4.296447548E0,1.122159481E0,4.374405861E0,-3.986506701E0
4.306449394E0,1.464854836E0,4.605313301E0,-4.100127697E0
4.316436702E0,1.984090328E0,4.718323231E0,-4.165490150E0
4.326469086E0,2.713463306E0,4.391510010E0,-4.557665825E0
4.336425702E0,2.835025549E0,3.776368856E0,-4.988325596E0
4.346458240E0,2.727513313E0,3.216816425E0,-5.495954514E0
4.356445317E0,2.598620653E0,2.996904850E0,-5.974873066E0
4.366447240E0,2.438574076E0,3.218038082E0,-6.145915031E0
4.376434240E0,2.152078152E0,3.641367674E0,-5.976705551E0
4.386466856E0,1.838704348E0,4.033543110E0,-5.676159859E0
4.396423240E0,1.658499122E0,4.156938076E0,-5.287038803E0
4.406455779E0,1.640173197E0,3.953519821E0,-4.839885235E0
4.416442625E0,1.706757545E0,3.539353132E0,-4.415945053E0
4.426444779E0,1.788613439E0,3.026837349E0,-3.954130650E0
4.436431856E0,1.786170006E0,2.532647371E0,-3.469714642E0
4.446461010E0,1.641394973E0,2.076330900E0,-2.951090097E0
4.456420394E0,1.348790407E0,1.768454909E0,-2.354885578E0
4.466450625E0,9.279043078E-1,1.642616630E0,-1.771509171E0
4.476439779E0,4.648684561E-1,1.624901533E0,-1.248608589E0
4.486442318E0,7.574728876E-2,1.607186437E0,-8.002334833E-1
4.496428702E0,-1.924225539E-1,1.534493446E0,-4.257730842E-1
4.506459164E0,-3.341432810E-1,1.417207360E0,-1.240056455E-1
4.516417933E0,-3.646865487E-1,1.310916781E0,1.001819000E-1
4.526450241E0,-3.304781020E-1,1.236391306E0,2.272418737E-1
4.536437318E0,-2.968805134E-1,1.169196129E0,2.950479090E-1
4.546468087E0,-3.145956099E-1,1.065959811E0,3.488040566E-1
4.556426856E0,-3.848451078E-1,9.046914577E-1,4.630358517E-1
4.566460087E0,-5.009095073E-1,7.159340382E-1,7.177666426E-1
4.576446318E0,-7.043276429E-1,4.318817258E-1,1.115439892E0
4.586449087E0,-1.006705880E0,-3.054326167E-3,1.605353832E0
4.596435472E0,-1.350012183E0,-5.601634383E-1,2.136195660E0
4.606465702E0,-1.615127683E0,-1.162476540E0,2.623055458E0
4.616424395E0,-1.734857321E0,-1.692707539E0,2.964529037E0
4.626457010E0,-1.604743004E0,-2.265699148E0,3.240029335E0
4.636444087E0,-1.314581990E0,-2.691472292E0,3.368921757E0
4.646446010E0,-8.704829812E-1,-3.186273098E0,3.568674803E0
4.656433010E0,-4.569272101E-1,-3.764762402E0,3.950465441E0
4.666465395E0,-3.078760803E-1,-4.365242958E0,4.539950371E0
4.676421933E0,-4.276056588E-1,-4.699386120E0,5.290703773E0
4.686454549E0,-7.611380816E-1,-4.690223217E0,6.163019657E0
4.696441626E0,-1.142928839E0,-4.439768791E0,7.116580009E0
4.706441395E0,-1.410487890E0,-4.099516869E0,7.882605076E0
4.716430549E0,-1.440420270E0,-3.812409878E0,8.058534622E0
4.726461010E0,-1.153313637E0,-3.403741121E0,7.497759819E0
4.736419472E0,-6.212499738E-1,-3.003624439E0,6.619946480E0
4.746452164E0,-1.808161139E-1,-2.546086311E0,5.795889378E0
4.756439164E0,-2.901609838E-1,-2.078774452E0,5.127603054E0
4.766441318E0,-1.007316828E0,-1.762957096E0,4.734205723E0
4.776428087E0,-1.928501606E0,-1.485013366E0,4.551557064E0
4.786460703E0,-2.722015619E0,-1.268767118E0,4.343251705E0
4.796447549E0,-3.243694544E0,-1.189965487E0,3.985284805E0
4.806449703E0,-3.448334217E0,-1.211345792E0,3.568063974E0
4.816436703E0,-3.412293196E0,-1.308473349E0,3.206431627E0
4.826469011E0,-3.236974955E0,-1.415374756E0,2.831360340E0
4.836425626E0,-2.977357149E0,-1.541213036E0,2.411695957E0
4.846455857E0,-2.720793724E0,-1.587027907E0,1.912619114E0
4.856445088E0,-2.582127333E0,-1.537547827E0,1.406211853E0
4.866444780E0,-2.554638386E0,-1.376890302E0,9.743300676E-1
4.876434242E0,-2.574796915E0,-1.084896684E0,5.913175344E-1
4.886465088E0,-2.582127333E0,-7.440338731E-1,1.942551434E-1
4.896423165E0,-2.466063023E0,-4.654793143E-1,-2.028072625E-1
4.906456165E0,-2.007303238E0,-1.117883399E-1,-7.635815740E-1
4.916442857E0,-1.613295078E0,7.574728876E-2,-1.146594048E0
4.926445319E0,-1.195463300E0,2.840523422E-1,-1.521054506E0
4.936431780E0,-7.776314616E-1,5.510004759E-1,-1.874134541E0
4.946465088E0,-3.811798990E-1,8.723155856E-1,-2.282192469E0
4.956420780E0,-2.321287990E-2,1.301142931E0,-2.717739582E0
4.966454011E0,2.700024247E-1,1.813048005E0,-3.095254183E0
4.976440165E0,4.691445231E-1,2.373822451E0,-3.387858629E0
4.986442934E0,5.522221923E-1,2.902831554E0,-3.587611675E0
4.996429319E0,5.900958180E-1,3.300504923E0,-3.688404322E0
5.006461934E0,7.837401032E-1,3.531411886E0,-3.758043051E0
5.016418319E0,1.179580808E0,3.821573019E0,-3.891822577E0
5.026453088E0,1.644449234E0,4.061032295E0,-4.034153938E0
5.036437934E0,2.089159250E0,4.332867146E0,-4.021326065E0
5.046468088E0,2.489886761E0,4.548502445E0,-3.824016333E0
5.056426857E0,2.879007816E0,4.642575741E0,-3.519194603E0
5.066459242E0,3.263853073E0,4.450153351E0,-3.206431627E0
5.076446319E0,3.550348759E0,3.946189404E0,-3.086702108E0
5.086448396E0,3.785531998E0,3.262020350E0,-3.509420872E0
5.096435473E0,3.913202763E0,2.806314945E0,-4.143498898E0
5.106468088E0,3.704897642E0,2.713463306E0,-4.572326183E0
5.116424473E0,3.281568050E0,2.909551144E0,-4.638910770E0
5.126457011E0,2.844799519E0,3.203988314E0,-4.499022484E0
5.136443858E0,2.521651745E0,3.307224512E0,-4.307210922E0
5.146446011E0,2.342668295E0,3.143512487E0,-4.101349354E0
5.156433011E0,2.253481865E0,2.863125324E0,-3.858835697E0
5.166465627E0,2.150856495E0,2.550362349E0,-3.529579401E0
5.176422011E0,1.980425119E0,2.227825642E0,-3.099530220E0
5.186452396E0,1.767843962E0,1.904677868E0,-2.629163980E0
5.196441396E0,1.418429136E0,1.511280656E0,-2.014022827E0
5.206441396E0,1.227839112E0,1.217454433E0,-1.637729764E0
5.216430550E0,1.089172721E0,1.018312335E0,-1.260215044E0
5.226461012E0,9.608910084E-1,9.902125597E-1,-9.382890463E-1
5.236419550E0,8.484918475E-1,1.041525245E0,-6.713408828E-1
5.246449935E0,7.611380816E-1,1.036638379E0,-4.282165468E-1
5.256439165E0,7.208209634E-1,9.584475756E-1,-2.382374406E-1
5.266441012E0,7.336491346E-1,8.839219809E-1,-1.417207420E-1
5.276428089E0,7.788531780E-1,8.057312369E-1,-1.288925707E-1
5.286458319E0,8.271115422E-1,6.841690540E-1,-1.429424733E-1
5.296447550E0,7.910705209E-1,5.406157374E-1,-9.773843735E-2
5.306450243E0,5.949827433E-1,4.086688459E-1,4.031710699E-2
5.316436704E0,2.357939780E-1,2.199114859E-1,3.188716471E-1
5.326469089E0,-2.364048511E-1,-2.626720630E-2,7.867944241E-1
5.336425627E0,-7.409795523E-1,-3.866777122E-1,1.416596532E0
5.346459166E0,-1.161254883E0,-7.855727077E-1,2.073887587E0
5.356445320E0,-1.437976837E0,-1.148426652E0,2.616335869E0
5.366477627E0,-1.567480206E0,-1.455691934E0,3.004235268E0
5.376434243E0,-1.571145415E0,-1.655444860E0,3.260187864E0
5.386466935E0,-1.491122007E0,-1.819767594E0,3.516140461E0
5.396423243E0,-1.544267297E0,-2.161241293E0,4.031710625E0
5.406454320E0,-1.944384098E0,-2.609616280E0,4.952284336E0
5.416087154E0,-2.717739582E0,-2.860071182E0,6.158743382E0
5.426426154E0,-3.811799049E0,-2.726291656E0,7.438506126E0
5.436413000E0,-5.114163876E0,-2.369546175E0,8.431773186E0
5.446442231E0,-6.239377499E0,-2.360383272E0,8.794627190E0
5.456401308E0,-6.645603180E0,-2.809980154E0,8.312043190E0
5.466431770E0,-6.200892925E0,-3.229033709E0,7.064045906E0
5.476421000E0,-5.082398891E0,-3.240029335E0,5.460524559E0
5.486420923E0,-3.246137857E0,-2.473393440E0,3.633426428E0
5.496409923E0,-2.662150621E0,-1.953547001E0,3.153897285E0
5.506442539E0,-2.633440018E0,-1.601688623E0,2.954755306E0
5.516398847E0,-2.828917027E0,-1.320690632E0,2.739730597E0
5.526431385E0,-2.934596539E0,-1.208291411E0,2.466673851E0
5.536418539E0,-2.838079929E0,-1.227839112E0,2.189341068E0
5.546449308E0,-2.535701513E0,-1.331686258E0,1.949881911E0
5.556408001E0,-2.063502789E0,-1.514945865E0,1.749518037E0
5.566440385E0,-1.491122007E0,-1.721418262E0,1.552819490E0
5.576427462E0,-9.523389339E-1,-1.833817482E0,1.351844788E0
5.586427385E0,-5.778785348E-1,-1.813658953E0,1.133154988E0
5.596416616E0,-4.062253833E-1,-1.624290705E0,8.936958313E-1
5.606446847E0,-4.349360466E-1,-1.283427835E0,6.560692787E-1
5.616405539E0,-5.955936313E-1,-8.955284357E-1,4.251621962E-1
5.626436616E0,-7.788531780E-1,-4.899139404E-1,1.698205322E-1
5.636425001E0,-8.949176073E-1,-9.346238524E-2,-1.191187203E-1
5.646425539E0,-9.193521738E-1,2.547308207E-1,-4.483750761E-1
5.656414155E0,-8.161159754E-1,5.070181489E-1,-8.057312369E-1
5.666447155E0,-5.583308339E-1,6.829473376E-1,-1.150259256E0
5.676403155E0,-1.936442852E-1,8.130616546E-1,-1.475850463E0
5.686436385E0,2.309070677E-1,9.254608750E-1,-1.811826348E0
5.696422539E0,6.352998614E-1,1.102000952E0,-2.156965256E0
5.706424693E0,9.321803451E-1,1.320079803E0,-2.478280306E0
5.716411693E0,1.097724795E0,1.614516854E0,-2.742174149E0
5.726442770E0,1.137431145E0,2.038457394E0,-2.972470284E0
5.736400616E0,1.078788042E0,2.552805901E0,-3.144123316E0
5.746433924E0,9.755517840E-1,3.114801884E0,-3.238807440E0
5.756420309E0,9.327912331E-1,3.611435413E0,-3.240029335E0
5.766422847E0,9.847147465E-1,3.963293791E0,-3.042109013E0
5.776409232E0,1.327410221E0,4.009719372E0,-2.335948706E0
5.786441616E0,1.919338584E0,3.602272272E0,-1.753183246E0
5.796428693E0,2.999959230E0,2.900388241E0,-1.569312811E0
5.806432693E0,4.467257500E0,2.062281132E0,-1.926669002E0
5.816417847E0,5.858197689E0,1.253495455E0,-2.656652927E0
5.826450232E0,6.728069782E0,7.318165898E-1,-3.423288822E0
5.836406847E0,6.739676476E0,7.299839854E-1,-3.930917740E0
5.846439155E0,5.948605537E0,1.083674908E0,-4.224743843E0
5.856426232E0,4.737870693E0,1.753183246E0,-4.403116703E0
5.866428078E0,3.504534006E0,2.532647371E0,-4.447710037E0
5.876415386E0,2.514321327E0,3.068986893E0,-4.351803780E0
5.886448001E0,1.843591332E0,3.321274281E0,-4.139833927E0
5.896404386E0,1.456302762E0,3.367089272E0,-3.841120720E0
5.906437001E0,1.280984402E0,3.192992687E0,-3.404962778E0
5.916424001E0,1.260215044E0,2.716517687E0,-2.857016802E0
5.926423771E0,1.361007810E0,2.073887587E0,-2.323731422E0
5.936412694E0,1.551597714E0,1.443474531E0,-1.904677868E0
5.946443463E0,1.788613439E0,8.875871897E-1,-1.599245191E0
5.956401925E0,2.008524895E0,5.852088928E-1,-1.351844788E0
5.966434232E0,2.111150265E0,5.296201706E-1,-1.155146122E0
5.976421540E0,2.024407387E0,5.375614166E-1,-9.633345008E-1
5.986423386E0,1.808161139E0,4.605923891E-1,-7.507534027E-1
5.996410540E0,1.571756244E0,3.219259977E-1,-5.607742667E-1
6.006442848E0,1.354899168E0,2.058615834E-1,-4.282165468E-1
6.016399463E0,1.158200502E0,8.185594529E-2,-3.671300113E-1
6.026431771E0,9.853256345E-1,-8.124507964E-2,-3.439171314E-1
6.036419079E0,8.045095205E-1,-2.376265824E-1,-2.822197378E-1
6.046452079E0,5.149593949E-1,-4.544837475E-1,-1.276708394E-1
6.056408002E0,7.941248268E-2,-7.580837607E-1,1.356120855E-1
6.066440386E0,-7.629706860E-1,-1.397659659E0,8.344419003E-1
6.076427694E0,-1.353677392E0,-1.994475007E0,1.533882618E0
6.086429540E0,-1.838093519E0,-2.590068579E0,2.321898699E0
6.096416386E0,-2.138639212E0,-3.122132301E0,3.037221909E0
6.106446848E0,-2.242486238E0,-3.481931925E0,3.592498541E0
6.116405540E0,-2.160630465E0,-3.544240236E0,3.934582949E0
6.126438233E0,-2.099543810E0,-3.489873171E0,4.277278423E0
6.136425233E0,-2.412306786E0,-3.610824347E0,4.891198158E0
6.146425848E0,-3.108082294E0,-3.980397940E0,5.774508953E0
6.156414156E0,-3.835011959E0,-4.571104527E0,6.845355988E0
6.166444387E0,-4.183205128E0,-4.982216835E0,7.999280453E0
6.176403156E0,-4.122729301E0,-4.907691479E0,8.794015884E0
6.186433540E0,-3.772703648E0,-4.353636742E0,8.737816811E0
6.196422771E0,-3.197879553E0,-3.474601507E0,7.737830162E0
6.206422541E0,-2.470339060E0,-2.594344616E0,6.131254673E0
6.216411694E0,-1.796554685E0,-2.072665691E0,4.753142357E0
6.226444079E0,-1.401935697E0,-1.941940665E0,4.074470997E0
6.236400694E0,-1.370170712E0,-1.896125674E0,3.900374651E0
6.246433310E0,-1.594358325E0,-1.692096710E0,3.640756845E0
6.256420310E0,-1.869858503E0,-1.350012183E0,3.080593348E0
6.266422464E0,-2.062281132E0,-1.004873276E0,2.417193890E0
6.276409233E0,-2.141693592E0,-7.354817390E-1,1.883297563E0
6.286439464E0,-2.125200272E0,-5.510004759E-1,1.522276163E0
6.296428695E0,-2.017076969E0,-4.544837475E-1,1.252273798E0
6.306428387E0,-1.841758728E0,-4.343251884E-1,1.036638379E0
6.316417925E0,-1.657888293E0,-4.642575979E-1,8.765916228E-1
6.326448002E0,-1.497841597E0,-5.045747161E-1,7.006624341E-1
6.336406772E0,-1.373835921E0,-4.587597847E-1,4.660901725E-1
6.346437618E0,-1.296256065E0,-3.536909819E-1,2.486221492E-1
6.356426464E0,-1.240056396E0,-7.941248268E-2,-3.665191587E-3
6.366426849E0,-1.177748203E0,1.209513173E-1,-1.912008226E-1
6.376415464E0,-1.053742528E0,3.671300113E-1,-4.068362415E-1
6.386446233E0,-9.071348906E-1,6.743952036E-1,-6.352998614E-1
6.396404387E0,-7.422012687E-1,9.486737251E-1,-8.442157507E-1
6.406435387E0,-5.198463202E-1,1.148426652E0,-1.104444385E0
6.416423772E0,-2.131919712E-1,1.291980028E0,-1.455080986E0
6.426424387E0,1.282816976E-1,1.465465665E0,-1.843591332E0
6.436413003E0,4.343251884E-1,1.723250866E0,-2.227825642E0
6.446445233E0,6.823364496E-1,2.107485056E0,-2.559525490E0
6.456401310E0,8.643743396E-1,2.650544405E0,-2.813034534E0
6.466434541E0,9.914342761E-1,3.191770792E0,-2.991407156E0
6.476420926E0,1.144150615E0,3.646254539E0,-3.064100027E0
6.486422772E0,1.354288220E0,3.949854612E0,-3.001791716E0
6.496409926E0,1.571145415E0,4.160603046E0,-2.789210796E0
6.506440080E0,1.696983695E0,4.454429150E0,-2.382374525E0
6.516398849E0,1.606575608E0,4.988936424E0,-1.816713214E0
6.526429234E0,1.242499948E0,5.649892807E0,-1.184467673E0
6.536418541E0,7.525860071E-1,5.886297703E0,-7.525860071E-1
6.546451464E0,4.105014503E-1,5.476407051E0,-1.002429843E0
6.556408003E0,4.007275999E-1,4.559498310E0,-1.929723263E0
6.566440388E0,7.434229851E-1,3.670689344E0,-2.890614271E0
6.576427464E0,1.332907915E0,3.076317310E0,-3.447112560E0
6.586429618E0,2.279138327E0,2.919935942E0,-3.566842079E0
6.596416388E0,3.618765831E0,3.040276289E0,-3.436116934E0
6.606449003E0,5.133100510E0,3.053104401E0,-3.239418507E0
6.616405618E0,6.432411194E0,2.665815830E0,-3.164892912E0
6.626436003E0,7.290065765E0,1.968207836E0,-3.258965969E0
6.636425003E0,7.669413090E0,1.081231475E0,-3.384804249E0
6.646424926E0,7.304115772E0,-5.742133409E-2,-3.306002617E0
6.656414157E0,6.441574097E0,-5.552765131E-1,-2.995683193E0
6.666445003E0,5.233282566E0,-8.258898258E-1,-2.544864655E0
6.676403157E0,3.883881330E0,-7.599163651E-1,-2.069000483E0
6.686433926E0,2.554638386E0,-3.469714522E-1,-1.692096710E0
6.696422542E0,1.340238333E0,2.284636050E-1,-1.390329242E0
6.706425542E0,3.280346394E-1,6.860016584E-1,-1.090394497E0
6.716411773E0,-3.915646076E-1,8.936958313E-1,-7.837401032E-1
6.726441926E0,-7.880161405E-1,7.971791625E-1,-4.935791194E-1
6.736400619E0,-8.973610401E-1,5.076290369E-1,-2.828305960E-1
6.746431080E0,-7.837401032E-1,1.850921661E-1,-1.948660165E-1
6.756420311E0,-5.510004759E-1,-1.374446750E-1,-1.954768747E-1
6.766419773E0,-3.249803185E-1,-5.082398653E-1,-1.966986060E-1
6.776409234E0,-2.113593817E-1,-9.291260242E-1,-1.087340117E-1
6.786440311E0,-2.058615834E-1,-1.441641927E0,7.696902007E-2
6.796428927E0,-2.700024247E-1,-2.039679050E0,3.671300113E-1
6.806428619E0,-3.787364662E-1,-2.636494398E0,8.613200188E-1
6.816417619E0,-5.363397002E-1,-3.064710855E0,1.535104394E0
6.826448696E0,-6.878342628E-1,-3.202766418E0,2.203390837E0
6.836406773E0,-8.008443117E-1,-3.038443804E0,2.791654110E0
6.846437004E0,-8.790351152E-1,-2.671313763E0,3.219259739E0
6.856426465E0,-9.162978530E-1,-2.277305603E0,3.536909819E0
6.866429004E0,-9.865473509E-1,-2.206445217E0,3.970013142E0
6.876415388E0,-1.120937705E0,-2.696969986E0,4.784907341E0
6.886448004E0,-1.189354658E0,-3.416569233E0,5.887519360E0
6.896404388E0,-1.036027431E0,-3.966347933E0,7.141625404E0
6.906434773E0,-6.401867867E-1,-4.075693130E0,8.289441109E0
6.916424004E0,-1.508837193E-1,-3.523470640E0,8.884424210E0
6.926423773E0,2.046398520E-1,-2.560747147E0,8.661458015E0
6.936412927E0,2.645046413E-1,-1.235169530E0,7.035335064E0
6.946445542E0,5.253441259E-2,-8.778133392E-1,5.802608967E0
6.956401927E0,-3.072652221E-1,-8.381071091E-1,4.880202293E0
6.966434465E0,-8.588765264E-1,-7.367035151E-1,4.279110909E0
6.976421312E0,-1.552819490E0,-5.271766782E-1,3.882048607E0
6.986423465E0,-2.214997292E0,-2.913827300E-1,3.495981693E0
6.996410465E0,-2.721404552E0,-1.209513173E-1,3.032945871E0
7.006443081E0,-2.957809448E0,-1.594358236E-1,2.598009825E0
7.016399466E0,-2.861903667E0,-4.117231667E-1,2.246151447E0
7.026429619E0,-2.515542984E0,-7.965682745E-1,1.995085835E0
7.036419081E0,-2.072665691E0,-1.181413412E0,1.828930497E0
7.046449235E0,-1.696983695E0,-1.414153099E0,1.700648785E0
7.056408004E0,-1.489900351E0,-1.453248382E0,1.606575608E0
7.066438543E0,-1.478293896E0,-1.324355841E0,1.489289522E0
7.076427696E0,-1.610851645E0,-1.105055213E0,1.315192819E0
7.086427389E0,-1.806939363E0,-8.179485798E-1,1.086729288E0
7.096416620E0,-2.006081581E0,-5.021312237E-1,7.874053121E-1
7.106446773E0,-2.154521704E0,-1.875356287E-1,4.331034720E-1
7.116405543E0,-2.222327709E0,1.136209369E-1,5.864306539E-2
7.126436620E0,-2.198503971E0,4.129449129E-1,-3.048217595E-1
7.136425004E0,-2.067167997E0,7.159340382E-1,-6.750060916E-1
7.146427697E0,-1.806328535E0,1.069014192E0,-1.077566266E0
7.156414158E0,-1.398881435E0,1.451415777E0,-1.525330544E0
7.166447697E0,-8.753699064E-1,1.828319669E0,-1.999972820E0
7.176403081E0,-2.809980214E-1,2.171015024E0,-2.472171545E0
7.186436389E0,3.188716471E-1,2.474615097E0,-2.882673025E0
7.196422543E0,8.674286604E-1,2.744617462E0,-3.208264351E0
7.206425312E0,1.345736146E0,3.029891729E0,-3.449556112E0
7.216411697E0,1.756237626E0,3.353650093E0,-3.632815599E0
7.226442158E0,2.178345442E0,3.859446526E0,-3.795916557E0
7.236400697E0,2.338392258E0,4.052480221E0,-3.714060783E0
7.246431697E0,2.502104044E0,4.040873528E0,-3.378695726E0
7.256420389E0,2.893057823E0,3.808133841E0,-2.663983345E0
7.266422158E0,3.754988670E0,3.345708847E0,-1.853976011E0
7.276409312E0,4.952895641E0,2.727513313E0,-2.001194477E0
7.286441620E0,6.113539219E0,1.756237626E0,-3.268739939E0
7.296428697E0,6.738454342E0,7.831292152E-1,-4.722599030E0
7.306430543E0,6.513045311E0,3.121521473E-1,-5.551543236E0
7.316417851E0,5.651725292E0,5.155702829E-1,-5.715866089E0
7.326450236E0,4.474587917E0,1.149037480E0,-5.726861477E0
7.336406851E0,3.266296387E0,1.734857321E0,-5.698151112E0
7.346437312E0,2.192395449E0,2.015855312E0,-5.559484482E0
7.356426236E0,1.291980028E0,2.131308794E0,-5.290703773E0
7.366458851E0,6.285803318E-1,2.143526077E0,-4.852102757E0
7.376415389E0,2.742784917E-1,2.065335512E0,-4.260174274E0
7.386448005E0,2.125810981E-1,1.917505980E0,-3.684128284E0
7.396404390E0,3.457497358E-1,1.741576791E0,-3.258965969E0
7.406436928E0,5.888741016E-1,1.445918083E0,-2.938261747E0
7.416424005E0,8.491026759E-1,1.128268123E0,-2.624887943E0
7.426424005E0,1.003040791E0,8.827002645E-1,-2.312735796E0
7.436413005E0,1.033583999E0,6.921103001E-1,-1.995696783E0
7.446442467E0,9.987646937E-1,6.310238242E-1,-1.698816299E0
7.456401313E0,9.138544202E-1,7.220427394E-1,-1.467298269E0
7.466431774E0,7.922922373E-1,9.095783234E-1,-1.317025423E0
7.476420928E0,6.151412725E-1,1.065348983E0,-1.221730471E0
7.486420928E0,3.659082949E-1,1.076344609E0,-1.109942198E0
7.496409928E0,6.047565863E-2,9.334021211E-1,-9.211847782E-1
7.506440390E0,-2.901609838E-1,6.731734872E-1,-6.102544069E-1
7.516399082E0,-8.759807348E-1,1.075122803E-1,3.158173263E-1
7.526429313E0,-1.209513187E0,-3.078760803E-1,1.195463300E0
7.536418467E0,-1.414763927E0,-7.354817390E-1,2.100154638E0
7.546449544E0,-1.502117634E0,-1.191187263E0,2.893668652E0
7.556408005E0,-1.493565559E0,-1.663996935E0,3.498425245E0
7.566438544E0,-1.377501130E0,-1.990198970E0,3.820351124E0
7.576427698E0,-1.308473349E0,-2.131919622E0,4.043316841E0
7.586430236E0,-1.552208543E0,-2.333505154E0,4.636466980E0
7.596416621E0,-2.058005095E0,-2.629163980E0,5.729305267E0
7.606447082E0,-2.679255009E0,-2.888781786E0,7.010289669E0
7.616405621E0,-3.188105822E0,-3.134960413E0,8.081136703E0
7.626436005E0,-3.259577036E0,-3.371976137E0,8.658404350E0
7.636425236E0,-2.767830372E0,-3.651752472E0,8.680395126E0
7.646425006E0,-1.874134541E0,-3.863111734E0,8.185594559E0
7.656414159E0,-9.804387093E-1,-3.543629169E0,7.329771996E0
7.666446775E0,-5.497786999E-1,-2.703078747E0,6.364604950E0
7.676403159E0,-7.831292152E-1,-1.805106759E0,5.483737469E0
7.686435698E0,-1.552208543E0,-1.015868902E0,4.654793262E0
7.696422775E0,-2.491719246E0,-3.897320330E-1,3.940080881E0
7.706424929E0,-3.274237633E0,-1.325577646E-1,3.452610254E0
7.716411698E0,-3.671300173E0,-9.651670605E-2,3.079371691E0
7.726444083E0,-3.602883101E0,-1.765400618E-1,2.725069761E0
7.736400698E0,-3.179553509E0,-3.921754956E-1,2.406198263E0
7.746430852E0,-2.593733788E0,-7.183775306E-1,2.139860868E0
7.756420313E0,-2.009746552E0,-1.078177214E0,1.926669002E0
7.766420006E0,-1.526552200E0,-1.353677392E0,1.766622305E0
7.776409237E0,-1.224173903E0,-1.467909217E0,1.625512362E0
7.786439698E0,-1.139874578E0,-1.433700681E0,1.475239515E0
7.796428929E0,-1.231504321E0,-1.284038782E0,1.287703991E0
7.806428390E0,-1.505782843E0,-9.120218158E-1,8.961393237E-1
7.816417852E0,-1.654223084E0,-6.310238242E-1,6.090326309E-1
7.826448698E0,-1.712255239E0,-3.591887653E-1,3.097086847E-1
7.836406775E0,-1.655444860E0,-9.896016866E-2,-2.443460980E-3
7.846437621E0,-1.500285029E0,1.472185254E-1,-3.182607889E-1
7.856426237E0,-1.268767118E0,3.878994286E-1,-6.462954283E-1
7.866428929E0,-9.792169929E-1,6.346889734E-1,-1.014036298E0
7.876415468E0,-6.487388611E-1,8.717046976E-1,-1.431868076E0
7.886448698E0,-2.981022298E-1,1.143539786E0,-1.861306429E0
7.896404314E0,4.703662544E-2,1.512502313E0,-2.279749155E0
7.906437545E0,4.324925840E-1,2.002416372E0,-2.715906858E0
7.916424006E0,9.285151958E-1,2.580905676E0,-3.114191055E0
7.926424391E0,1.535715222E0,3.131906033E0,-3.410460711E0
7.936412929E0,2.212553978E0,3.576616049E0,-3.546072721E0
7.946445314E0,2.913216352E0,3.816686153E0,-3.469714642E0
7.956401929E0,3.619987488E0,3.740938663E0,-3.192381859E0
7.966436622E0,4.431216717E0,3.397632599E0,-2.776993513E0
7.976421314E0,5.404325008E0,2.946202993E0,-2.516764879E0
7.986423160E0,6.462954521E0,2.503936529E0,-2.735454559E0
7.996410545E0,7.376197815E0,1.894293070E0,-3.284622431E0
8.006442853E0,7.766540527E0,1.163698316E0,-3.920533180E0
8.016399391E0,7.352374077E0,6.291912198E-1,-4.571104527E0
8.026431776E0,6.175236702E0,4.874704778E-1,-5.031085968E0
8.036419083E0,4.627914906E0,8.216137290E-1,-5.173417568E0
8.046451468E0,3.152675629E0,1.403768301E0,-5.201517582E0
8.056408083E0,2.037235498E0,1.916895151E0,-5.195408821E0
8.066440622E0,1.373225093E0,2.145358801E0,-5.052466393E0
8.076427468E0,1.037860036E0,2.180788994E0,-4.773911953E0
8.086427391E0,8.643743396E-1,2.068389654E0,-4.436103344E0
8.096416391E0,7.580837607E-1,1.604132175E0,-3.837455511E0
8.106449237E0,7.379252315E-1,1.225395679E0,-3.396410704E0
8.116405622E0,7.195992470E-1,9.114109278E-1,-2.985909224E0
8.126438237E0,6.817256212E-1,6.707300544E-1,-2.577240467E0
8.136425237E0,6.059783101E-1,5.717698932E-1,-2.152078152E0
8.146424930E0,4.776966274E-1,6.120869517E-1,-1.745242000E0
8.156414237E0,3.683517575E-1,7.287622094E-1,-1.346957922E0
8.166444699E0,3.194825351E-1,9.120218158E-1,-1.031140566E0
8.176403084E0,3.335324228E-1,1.021977544E0,-8.216137290E-1
8.186435468E0,4.056145251E-1,1.069625020E0,-7.324274182E-1
8.196422545E0,4.899139404E-1,1.059851170E0,-7.379252315E-1
8.206422468E0,5.180137157E-1,9.792169929E-1,-7.709119320E-1
8.216411699E0,4.447098970E-1,8.698720932E-1,-7.605272532E-1
8.226442545E0,2.571742535E-1,7.562511563E-1,-6.658431292E-1
8.236400699E0,-5.070181563E-2,6.175847650E-1,-4.581489265E-1
8.246433315E0,-4.477642179E-1,4.031710625E-1,-1.044579595E-1
8.256420315E0,-8.735373020E-1,1.056796908E-1,3.995058835E-1
8.266420007E0,-1.262658477E0,-2.871066630E-1,9.773843884E-1
8.276409315E0,-1.508226275E0,-7.800748944E-1,1.555262923E0
8.286440084E0,-1.558317184E0,-1.288925648E0,2.088548183E0
8.296428930E0,-1.447139740E0,-1.725083470E0,2.486832380E0
8.306430853E0,-1.226617455E0,-1.974316478E0,2.766608715E0
8.316417853E0,-1.000597239E0,-1.968207836E0,2.991407156E0
8.326448315E0,-9.871582389E-1,-1.928501606E0,3.403130293E0
8.336406853E0,-1.328631878E0,-2.022574902E0,4.134335995E0
8.346437315E0,-1.943773150E0,-2.191784382E0,5.035973072E0
8.356426469E0,-2.662761688E0,-2.318233490E0,5.961433887E0
8.366426238E0,-3.293785334E0,-2.345722437E0,6.831916809E0
8.376415392E0,-3.626096010E0,-2.360994101E0,7.470271111E0
8.386445853E0,-3.394578218E0,-2.423302412E0,7.441560268E0
8.396404392E0,-2.939483643E0,-2.011579275E0,6.693861485E0
8.406436930E0,-2.560136318E0,-1.368338108E0,5.652336121E0
8.416424007E0,-2.434298038E0,-8.075638413E-1,4.629137039E0
8.426426161E0,-2.623666286E0,-4.355469346E-1,3.780034065E0
8.436412930E0,-3.038443804E0,-2.602286041E-1,3.105028152E0
8.446444392E0,-3.464827776E0,-2.816088796E-1,2.562579632E0
8.456401315E0,-3.681073904E0,-3.671300113E-1,2.133141518E0
8.466433623E0,-3.606548309E0,-5.180137157E-1,1.823432803E0
8.476421007E0,-3.271183491E0,-7.593054771E-1,1.645671010E0
8.486420700E0,-2.787988901E0,-9.914342761E-1,1.524108768E0
8.496409854E0,-2.274862289E0,-1.201571941E0,1.393994451E0
8.506440084E0,-1.832595706E0,-1.354899168E0,1.231504321E0
8.516398854E0,-1.540602207E0,-1.442252874E0,1.032362223E0
8.526429315E0,-1.392772794E0,-1.469130874E0,8.289441466E-1
8.536418546E0,-1.336573124E0,-1.406822681E0,6.609562039E-1
8.546449854E0,-1.326799273E0,-1.249219418E0,5.271766782E-1
8.556408008E0,-1.339016676E0,-1.045190454E0,4.129449129E-1
8.566438238E0,-1.337184072E0,-8.460483551E-1,3.072652221E-1
8.576427469E0,-1.293201685E0,-6.792821288E-1,1.979203373E-1
8.586427392E0,-1.183856845E0,-5.253441334E-1,7.452555746E-2
8.596416623E0,-1.020755768E0,-3.579670191E-1,-1.062905490E-1
8.606446777E0,-8.509352803E-1,-2.015855312E-1,-3.909537494E-1
8.616405546E0,-7.195992470E-1,-5.864306539E-2,-7.916813493E-1
8.626436700E0,-6.450737119E-1,1.032362282E-1,-1.295645237E0
8.636425239E0,-5.992587805E-1,3.396410644E-1,-1.887573600E0
8.646425623E0,-5.601634383E-1,7.287622094E-1,-2.505769253E0
8.656414162E0,-4.593706727E-1,1.190576315E0,-3.001791716E0
8.666447162E0,-2.382374406E-1,1.684766293E0,-3.262631178E0
8.676403085E0,3.231477141E-1,2.362215996E0,-3.351817608E0
8.686436393E0,9.065240026E-1,2.491108418E0,-3.230866194E0
8.696422777E0,1.756848454E0,2.307238102E0,-3.062878370E0
8.706424700E0,2.844799519E0,2.031126976E0,-3.022561312E0
8.716411777E0,3.990171671E0,1.750128984E0,-3.097086906E0
8.726444085E0,5.031085968E0,1.577864885E0,-3.264463902E0
8.736400623E0,5.897903919E0,1.473407030E0,-3.408627987E0
8.746433239E0,6.517931938E0,1.147815824E0,-3.431840897E0
8.756420316E0,6.832527637E0,6.267477274E-1,-3.576616049E0
8.766422162E0,6.800762653E0,1.056796908E-1,-4.014606476E0
8.776409316E0,6.354220390E0,-1.545489132E-1,-4.502687931E0
8.786441624E0,5.531995773E0,-1.343903504E-2,-4.774522781E0
8.796428701E0,4.528344154E0,5.186246037E-1,-4.813618183E0
8.806430777E0,3.535077095E0,1.185689449E0,-4.650516987E0
8.816417624E0,2.666426897E0,1.635897160E0,-4.403727531E0
8.826450470E0,1.997529387E0,1.803885102E0,-4.118453503E0
8.836406854E0,1.516778350E0,1.850310802E0,-3.804468632E0
8.846439393E0,1.171028733E0,1.798387289E0,-3.469103813E0
8.856426239E0,9.175195694E-1,1.711644411E0,-3.136182070E0
8.866428393E0,7.183775306E-1,1.675603390E0,-2.838079929E0
8.876415393E0,5.729916096E-1,1.580919266E0,-2.532036543E0
8.886445855E0,4.825835526E-1,1.406211853E0,-2.161852121E0
8.896404316E0,4.129449129E-1,1.218065262E0,-1.764789701E0
8.906434855E0,3.329215646E-1,1.044579625E0,-1.403768301E0
8.916423778E0,2.724458873E-1,8.356636763E-1,-1.119716048E0
8.926423778E0,2.681698501E-1,6.029239893E-1,-9.144652486E-1
8.936412932E0,3.115412891E-1,4.477642179E-1,-8.063421249E-1
8.946443393E0,3.512475193E-1,3.976732790E-1,-7.831292152E-1
8.956401932E0,3.158173263E-1,3.976732790E-1,-7.776314616E-1
8.966433239E0,-1.160643995E-2,3.726277947E-1,-6.194173694E-1
8.976421316E0,-3.683517575E-1,2.852740586E-1,-3.720169365E-1
8.986421239E0,-7.739662528E-1,1.527163088E-1,5.192354694E-2
8.996410470E0,-1.168585181E0,-6.414084882E-2,6.939429045E-1
9.006440701E0,-1.476461291E0,-3.738495409E-1,1.500895858E0
9.016399470E0,-1.644449234E0,-7.696902156E-1,2.270586014E0
9.026430547E0,-1.673159957E0,-1.210124016E0,2.843577623E0
9.036419086E0,-1.585195303E0,-1.571145415E0,3.169168949E0
9.046451701E0,-1.432479024E0,-1.730581284E0,3.280957222E0
9.056408009E0,-1.332907915E0,-1.625512362E0,3.346319914E0
9.066438470E0,-1.452637553E0,-1.429424644E0,3.659082890E0
9.076427701E0,-1.885130167E0,-1.292590857E0,4.418388367E0
9.086428624E0,-2.636494398E0,-1.269988894E0,5.476407051E0
9.096416624E0,-3.554624796E0,-1.420261741E0,6.491054058E0
9.106447086E0,-4.294382572E0,-1.584584475E0,7.369478226E0
9.116405624E0,-4.608978271E0,-1.817324162E0,7.958352566E0
9.126436009E0,-4.382347107E0,-2.180178165E0,7.823962212E0
9.136425240E0,-3.680463076E0,-2.296242476E0,6.790988922E0
9.146425009E0,-2.736676216E0,-1.964542627E0,5.377446651E0
9.156414163E0,-1.922392964E0,-1.449583173E0,4.211915970E0
9.166446855E0,-1.533271790E0,-1.045190454E0,3.574783325E0
9.176403086E0,-1.590693116E0,-8.588765264E-1,3.360369682E0
9.186435701E0,-1.857641220E0,-8.564330935E-1,3.354261160E0
9.196422778E0,-2.098322153E0,-9.932668805E-1,3.250413895E0
9.206424625E0,-2.207056046E0,-1.118494272E0,2.961474657E0
9.216411471E0,-2.180178165E0,-1.180802464E0,2.682309389E0
9.226444317E0,-2.108706713E0,-1.198517561E0,2.566855669E0
9.236400702E0,-2.092824221E0,-1.177137375E0,2.574796915E0
9.246433317E0,-2.159408569E0,-1.108109593E0,2.563190460E0
9.256420317E0,-2.335337877E0,-1.036638379E0,2.343279123E0
9.266422163E0,-2.450180531E0,-9.663888216E-1,2.043344259E0
9.276409240E0,-2.550973177E0,-8.820894361E-1,1.673770785E0
9.286439702E0,-2.641381264E0,-8.002334833E-1,1.283427835E0
9.296428702E0,-2.709187269E0,-7.232644558E-1,9.022479653E-1
9.306428625E0,-2.717128515E0,-6.285803318E-1,5.723807216E-1
9.316417856E0,-2.660928965E0,-5.204572082E-1,2.803871334E-1
9.326448702E0,-2.527149439E0,-3.830125034E-1,3.665191587E-3
9.336406856E0,-2.311514139E0,-2.052507252E-1,-2.913827300E-1
9.346439779E0,-2.023796558E0,-2.015855350E-2,-6.450737119E-1
9.356426240E0,-1.657277465E0,1.685988009E-1,-1.056185961E0
9.366459163E0,-1.209513187E0,4.190535545E-1,-1.491122007E0
9.376415394E0,-7.018841505E-1,7.098253965E-1,-1.921782017E0
9.386448702E0,-1.832595766E-1,1.047633886E0,-2.297464132E0
9.396404394E0,3.005456924E-1,1.436755061E0,-2.599842548E0
9.406437625E0,7.336491346E-1,1.844812989E0,-2.866179705E0
9.416424010E0,1.152702689E0,2.189951897E0,-3.081815243E0
9.426426779E0,1.569312811E0,2.493551970E0,-3.215594769E0
9.436413010E0,1.980425119E0,2.765997887E0,-3.282789946E0
9.446444394E0,2.382374525E0,3.007900476E0,-3.272405148E0
9.456401318E0,2.803260565E0,3.116634369E0,-3.159394979E0
9.466433856E0,3.346319914E0,3.009122133E0,-2.860682011E0
9.476420933E0,4.139833927E0,2.831360340E0,-2.506990910E0
9.486422779E0,5.126380920E0,2.584570885E0,-2.468506575E0
9.496409933E0,6.061005116E0,2.070833206E0,-2.792876005E0
9.506442241E0,6.621168613E0,1.321912408E0,-3.329215527E0
9.516398856E0,6.572909832E0,7.061602473E-1,-3.875329018E0
9.526431395E0,5.877745152E0,5.968153477E-1,-4.151440144E0
9.536418472E0,4.783685684E0,1.029918790E0,-4.164879322E0
9.546451395E0,3.080593348E0,2.058615923E0,-3.942524195E0
9.556408087E0,2.221106052E0,2.536312580E0,-3.689015150E0
9.566438472E0,1.621236324E0,2.778825998E0,-3.440392971E0
9.576427472E0,1.273653984E0,2.817921400E0,-3.161227703E0
9.586427472E0,1.177137375E0,2.630996704E0,-2.791654110E0
9.596416626E0,1.274264932E0,2.225382090E0,-2.368324518E0
9.606449241E0,1.495398164E0,1.642005801E0,-1.965764403E0
9.616405549E0,1.766011477E0,1.017090678E0,-1.609019041E0
9.626437933E0,1.929723263E0,5.699372888E-1,-1.306029916E0
9.636425010E0,1.868025899E0,3.145956099E-1,-1.059851170E0
9.646427087E0,1.603521228E0,2.449569702E-1,-8.668177724E-1
9.656414164E0,1.224784851E0,2.681698501E-1,-6.762278080E-1
9.666444318E0,8.020660877E-1,3.573561609E-1,-4.721988440E-1
9.676403164E0,3.793473244E-1,4.911356568E-1,-3.194825351E-1
9.686433318E0,3.176499158E-2,5.754350424E-1,-2.455678284E-1
9.696422549E0,-1.692096740E-1,6.188064814E-1,-2.327396572E-1
9.706422472E0,-2.626720667E-1,6.670648456E-1,-2.284636050E-1
9.716411703E0,-3.640756905E-1,6.780604124E-1,-1.624901593E-1
9.726442549E0,-5.448917747E-1,6.169738770E-1,1.221730490E-3
9.736400703E0,-8.185594082E-1,4.758640230E-1,3.262020350E-1
9.746431087E0,-1.169806957E0,2.052507252E-1,8.277224302E-1
9.756420318E0,-1.528995752E0,-2.492330223E-1,1.422705173E0
9.766420703E0,-1.775785327E0,-9.132435322E-1,2.038457394E0
9.776409241E0,-1.812437177E0,-1.647503614E0,2.564412355E0
9.786441626E0,-1.649336219E0,-2.194838762E0,2.883283854E0
9.796428934E0,-1.430646420E0,-2.395813465E0,3.078760862E0
9.806433011E0,-1.356120825E0,-2.285857677E0,3.313943863E0
9.816417857E0,-1.681101203E0,-2.084272146E0,3.784921169E0
9.826448318E0,-2.532036543E0,-2.042122602E0,4.565607071E0
9.836406857E0,-4.316373825E0,-2.358550787E0,5.958379745E0
9.846436934E0,-5.213123798E0,-2.624277115E0,6.693250656E0
9.856426242E0,-5.508172035E0,-2.955366135E0,7.086036682E0
9.866426242E0,-5.102557182E0,-3.211929560E0,7.076262951E0
9.876415395E0,-4.193589687E0,-3.081815243E0,6.623611927E0
9.886445857E0,-3.034167767E0,-2.516154051E0,5.848423958E0
9.896404319E0,-1.957212210E0,-1.720196486E0,5.011538506E0
9.906436934E0,-1.337794900E0,-1.200961113E0,4.326147556E0
9.916424011E0,-1.307251573E0,-1.052520871E0,3.797138453E0
9.926425934E0,-1.684766293E0,-9.480628371E-1,3.360369682E0
9.936412703E0,-2.226603746E0,-7.263187766E-1,2.940094471E0
9.946445626E0,-2.728124142E0,-4.392121136E-1,2.483778000E0
9.956401934E0,-2.985298395E0,-2.040289938E-1,2.086715698E0
9.966434473E0,-2.951090097E0,-8.307767659E-2,1.781893969E0
9.976421550E0,-2.681087494E0,-1.466076523E-1,1.569312811E0
9.986421242E0,-2.263866663E0,-3.585779071E-1,1.422705173E0
9.996410473E0,-1.796554685E0,-6.597344875E-1,1.262658477E0
1.000644070E1,-1.400103092E0,-9.028588533E-1,1.035416603E0
1.001639940E1,-1.163087368E0,-1.013425469E0,7.562511563E-1
1.002642963E1,-1.076955438E0,-9.889908433E-1,4.697553813E-1
1.003641909E1,-1.103833556E0,-8.368853927E-1,1.698205322E-1
1.004644932E1,-1.190576315E0,-5.864306092E-1,-1.392772794E-1
1.005640801E1,-1.278540969E0,-2.877175212E-1,-4.300491214E-1
1.006643886E1,-1.309084177E0,2.260201424E-2,-6.957755089E-1
1.007642747E1,-1.266934514E0,3.439171314E-1,-9.553932548E-1
1.008642801E1,-1.141707182E0,6.249151230E-1,-1.212567568E0
1.009641663E1,-9.162978530E-1,8.692612648E-1,-1.470963478E0
1.010644986E1,-6.029239893E-1,1.078177214E0,-1.744020224E0
1.011640563E1,-2.052507252E-1,1.233947754E0,-2.044565916E0
1.012643878E1,5.021312237E-1,1.513724089E0,-2.501493216E0
1.013642501E1,9.584475756E-1,1.734857321E0,-2.783712864E0
1.014642801E1,1.379333735E0,2.027461767E0,-3.009732962E0
1.015641424E1,1.756237626E0,2.428800106E0,-3.180164576E0
1.016644747E1,2.062281132E0,2.869844913E0,-3.262020350E0
1.017640309E1,2.289522886E0,3.265074730E0,-3.233920574E0
1.018643547E1,2.447736979E0,3.576616049E0,-3.109915018E0
1.019642255E1,2.558914423E0,3.771481991E0,-2.817310572E0
1.020642463E1,2.701246023E0,3.766595125E0,-2.315179348E0
1.021641178E1,3.047606707E0,3.545461893E0,-1.792889476E0
1.022644401E1,3.793473244E0,3.208875179E0,-1.656666517E0
1.023640070E1,4.988325596E0,2.695748329E0,-2.065946341E0
1.024643324E1,6.277251244E0,1.934610248E0,-2.679865837E0
1.025642009E1,7.091534615E0,1.119716048E0,-3.240029335E0
1.026642194E1,7.107417107E0,6.340781450E-1,-3.686571836E0
1.027640932E1,6.494719505E0,6.517932415E-1,-3.916257143E0
1.028643947E1,5.547267437E0,1.081231475E0,-4.053701878E0
1.029642870E1,4.508796215E0,1.573588848E0,-4.158770561E0
1.030642863E1,3.601661444E0,1.871080279E0,-4.207639694E0
1.031641786E1,2.901609898E0,2.075109243E0,-4.160603046E0
1.032644832E1,2.390315771E0,2.229658127E0,-4.001167297E0
1.033640686E1,2.048231125E0,2.247373343E0,-3.738495350E0
1.034643732E1,1.854586840E0,2.101376534E0,-3.387247801E0
1.035642647E1,1.791056871E0,1.805106759E0,-2.954755306E0
1.036642647E1,1.783115625E0,1.474017859E0,-2.505158424E0
1.037641540E1,1.756237626E0,1.155757070E0,-2.097711325E0
1.038644586E1,1.701870561E0,8.729264140E-1,-1.748296380E0
1.039640440E1,1.648725271E0,6.743952036E-1,-1.453248382E0
1.040643455E1,1.620014668E0,5.839871764E-1,-1.240056396E0
1.041642378E1,1.530828357E0,7.348709106E-1,-1.106887817E0
1.042642370E1,1.373225093E0,9.211847782E-1,-1.100168347E0
1.043641294E1,1.113607287E0,1.132544160E0,-1.081231475E0
1.044646538E1,7.403686643E-1,1.320690632E0,-9.932668805E-1
1.045642192E1,2.638937831E-1,1.480126500E0,-8.093964458E-1
1.046645485E1,-3.054326177E-1,1.530217409E0,-5.137376785E-1
1.047644131E1,-9.101892114E-1,1.374446750E0,-1.185078546E-1
1.048644323E1,-1.489289522E0,9.718865752E-1,3.799581826E-1
1.049643023E1,-1.982868552E0,3.439171314E-1,9.572258592E-1
1.050646346E1,-2.348776817E0,-4.147774875E-1,1.514945865E0
1.051641946E1,-2.547919035E0,-1.172250390E0,1.999361992E0
1.052644962E1,-2.593733788E0,-1.771509171E0,2.387872219E0
1.053643885E1,-2.525316954E0,-2.156965256E0,2.694526672E0
1.054647208E1,-2.446515322E0,-2.269364357E0,2.955976963E0
1.055642838E1,-2.560136318E0,-2.211943150E0,3.259577036E0
1.056645885E1,-3.011565685E0,-2.229658127E0,3.764762402E0
1.057644785E1,-3.783088446E0,-2.403754711E0,4.495968342E0
1.058644992E1,-4.636466980E0,-2.618779421E0,5.305975437E0
1.059643700E1,-5.248554230E0,-2.836247444E0,6.081774235E0
1.060646746E1,-5.391496658E0,-3.196047068E0,6.777549744E0
1.061642592E1,-4.903415203E0,-3.722612858E0,7.171557903E0
1.062645639E1,-3.817296982E0,-3.979787111E0,7.028004646E0
1.063644562E1,-2.490497589E0,-3.577226877E0,6.324898720E0
1.064644538E1,-1.425759435E0,-2.706743956E0,5.351790428E0
1.065643431E1,-9.834930301E-1,-1.951714516E0,4.520402908E0
1.066646692E1,-1.203404546E0,-1.472185254E0,4.030488968E0
1.067642346E1,-1.877799749E0,-1.123381138E0,3.809966564E0
1.068645608E1,-2.758667469E0,-8.301658630E-1,3.623652697E0
1.069644315E1,-3.555846691E0,-6.004805565E-1,3.355482817E0
1.070644500E1,-4.120285988E0,-4.917465150E-1,2.845410347E0
1.071643208E1,-3.992615223E0,-6.481280327E-1,2.588846922E0
1.072646438E1,-3.567453146E0,-9.205739498E-1,2.414139509E0
1.073642100E1,-2.985298395E0,-1.235169530E0,2.234544992E0
1.074645338E1,-2.393369913E0,-1.491732955E0,1.987144589E0
1.075644069E1,-1.952325344E0,-1.606575608E0,1.681712031E0
1.076644039E1,-1.728748679E0,-1.593747377E0,1.368338108E0
1.077642962E1,-1.684766293E0,-1.439809442E0,1.074512005E0
1.078645985E1,-1.759902716E0,-1.184467673E0,8.020660877E-1
1.079644908E1,-1.863749862E0,-8.888089061E-1,5.479460955E-1
1.080644962E1,-1.907732129E0,-6.053674817E-1,3.097086847E-1
1.081643823E1,-1.850921750E0,-3.640756905E-1,6.658431143E-2
1.082647123E1,-1.683544636E0,-1.496619880E-1,-1.789835095E-1
1.083642723E1,-1.418429136E0,8.552113175E-2,-4.343251884E-1
1.084645954E1,-1.081231475E0,3.536909819E-1,-7.147123218E-1
1.085644662E1,-7.049384713E-1,6.438519955E-1,-1.028697014E0
1.086644877E1,-2.907718420E-1,9.505063295E-1,-1.375668526E0
1.087643577E1,1.631010175E-1,1.277319193E0,-1.707979202E0
1.088646838E1,6.114761233E-1,1.646281838E0,-2.010968447E0
1.089642469E1,9.896016717E-1,2.065946341E0,-2.251038313E0
1.090645792E1,1.312138557E0,2.476447821E0,-2.419637203E0
1.091644416E1,1.624290705E0,2.842355967E0,-2.523484230E0
1.092644623E1,1.927890658E0,3.145345211E0,-2.603507757E0
1.093643331E1,2.203390837E0,3.329215527E0,-2.664594173E0
1.094646569E1,2.521040916E0,3.278513670E0,-2.634050846E0
1.095642231E1,3.026226521E0,3.017063379E0,-2.464841366E0
1.096645677E1,3.805690527E0,2.698191881E0,-2.358550787E0
1.097644169E1,4.845993996E0,2.416582823E0,-2.466063023E0
1.098644377E1,5.957768917E0,2.079996109E0,-2.696969986E0
1.099643092E1,7.025561333E0,1.321301579E0,-3.125186682E0
1.100646323E1,6.993796349E0,7.360926270E-1,-3.506977320E0
1.101641985E1,6.415917873E0,4.056145251E-1,-3.840509892E0
1.102645023E1,5.592471123E0,4.312708676E-1,-4.115399361E0
1.103643946E1,4.786739826E0,8.319984674E-1,-4.334088802E0
1.104646962E1,4.091575623E0,1.277319193E0,-4.448320866E0
1.105642839E1,3.490483999E0,1.545489073E0,-4.459927082E0
1.106645885E1,2.956587791E0,1.712255239E0,-4.356080055E0
1.107644785E1,2.487443209E0,1.807550311E0,-4.120285988E0
1.108644785E1,2.078163624E0,1.737911582E0,-3.781255960E0
1.109643700E1,1.704924941E0,1.557706356E0,-3.413515091E0
1.110646962E1,1.416596532E0,1.250441194E0,-3.084869385E0
1.111642600E1,1.248608589E0,8.875871897E-1,-2.772717237E0
1.112645854E1,1.163698316E0,5.607742667E-1,-2.479501963E0
1.113644539E1,1.091616154E0,3.799581826E-1,-2.231490850E0
1.114644539E1,9.841039181E-1,3.561344445E-1,-2.032348633E0
1.115643454E1,8.564330935E-1,3.878994286E-1,-1.838093519E0
1.116646500E1,7.476990819E-1,4.282165468E-1,-1.656666517E0
1.117642354E1,6.640105247E-1,4.575380683E-1,-1.494787216E0
1.118645462E1,5.638286471E-1,4.636467099E-1,-1.321301579E0
1.119644316E1,3.683517575E-1,4.703662395E-1,-1.116661668E0
1.120644385E1,7.391469181E-2,4.202753007E-1,-8.637634516E-1
1.121643185E1,-2.767219543E-1,3.402519524E-1,-5.149593949E-1
1.122646254E1,-6.719517708E-1,2.345722616E-1,-5.497787148E-3
1.123642108E1,-1.116661668E0,4.337143153E-2,6.615670323E-1
1.124645216E1,-1.570534587E0,-1.869247705E-1,1.398270488E0
1.125644069E1,-1.958433986E0,-4.196644127E-1,2.084272146E0
1.126644046E1,-2.228436470E0,-6.298020482E-1,2.676811457E0
1.127642969E1,-2.365270138E0,-7.825183868E-1,3.123964787E0
1.128646223E1,-2.335337877E0,-8.613200188E-1,3.456275463E0
1.129644931E1,-2.296853304E0,-8.881980777E-1,3.582724571E0
1.130644908E1,-2.576018810E0,-9.419541955E-1,3.814242601E0
1.131643823E1,-3.324328661E0,-9.004153609E-1,4.153272629E0
1.132647085E1,-4.445877075E0,-7.379252315E-1,4.557665825E0
1.133642723E1,-5.666386127E0,-5.943718553E-1,4.987103939E0
1.134645762E1,-6.696915627E0,-8.491026759E-1,5.439754963E0
1.135644685E1,-7.211264133E0,-1.873523712E0,5.852699757E0
1.136648039E1,-7.030447960E0,-3.105028152E0,5.896682262E0
1.137643577E1,-6.254649162E0,-3.647476435E0,5.313305855E0
1.138646623E1,-5.225952148E0,-3.224146843E0,4.356690884E0
1.139642477E1,-4.342640877E0,-2.185675859E0,3.382360935E0
1.140645708E1,-3.944967747E0,-1.131322384E0,2.566244841E0
1.141644439E1,-4.094018936E0,-7.061602473E-1,1.987755537E0
1.142644623E1,-4.408614635E0,-7.586946487E-1,1.726305127E0
1.143643339E1,-4.536896229E0,-1.076344609E0,1.667662144E0
1.144646685E1,-4.363410473E0,-1.635286212E0,1.656055689E0
1.145642169E1,-3.878994226E0,-2.296242476E0,1.603521228E0
1.146645616E1,-3.188105822E0,-2.803871393E0,1.496008992E0
1.147644139E1,-2.448958874E0,-3.045774221E0,1.401324868E0
1.148644323E1,-1.841147900E0,-2.993850470E0,1.326799273E0
1.149643031E1,-1.529606581E0,-2.759889126E0,1.207069755E0
1.150646069E1,-1.511891484E0,-2.342057467E0,1.025642753E0
1.151641923E1,-1.681101203E0,-1.829541445E0,8.167268038E-1
1.152644962E1,-1.910175562E0,-1.389107585E0,5.986479521E-1
1.153643885E1,-2.083661318E0,-1.055575132E0,3.677408695E-1
1.154647246E1,-2.097711325E0,-8.100073338E-1,1.056796908E-1
1.155642839E1,-1.902845263E0,-6.090326309E-1,-1.869247705E-1
1.156646139E1,-1.265712738E0,-2.333505303E-1,-6.872233748E-1
1.157644785E1,-7.183775306E-1,6.536258012E-2,-1.058629513E0
1.158644992E1,-1.545489132E-1,3.744603992E-1,-1.428202987E0
1.159643700E1,3.573561609E-1,7.244861722E-1,-1.772120118E0
1.160646939E1,8.081747293E-1,1.092837930E0,-2.083661318E0
1.161642593E1,1.204015374E0,1.519221902E0,-2.322509766E0
1.162645854E1,1.554652095E0,1.973094702E0,-2.525927782E0
1.163644539E1,1.871080279E0,2.489886761E0,-2.696969986E0
1.164644816E1,2.150245667E0,2.995683193E0,-2.790432453E0
1.165643462E1,2.408030748E0,3.431230068E0,-2.780047655E0
1.166646754E1,2.650544405E0,3.798970938E0,-2.665815830E0
1.167642354E1,2.912605524E0,4.026823521E0,-2.384207010E0
1.168645585E1,3.237585783E0,3.985895634E0,-1.855197787E0
1.169644293E1,3.770260334E0,3.541796684E0,-1.210124016E0
1.170644693E1,4.660902023E0,2.921157598E0,-9.010262489E-1
1.171643208E1,5.723196507E0,2.552195072E0,-1.185689449E0
1.172646231E1,6.464176178E0,2.452013016E0,-1.875356317E0
1.173642108E1,6.535647392E0,2.582127333E0,-2.634661913E0
1.174645146E1,5.959601402E0,2.838079929E0,-3.265074730E0
1.175644070E1,5.085453033E0,3.109915018E0,-3.662748098E0
1.176644046E1,4.291939259E0,3.385415077E0,-3.918700457E0
1.177642962E1,3.772092819E0,3.525914192E0,-4.089131832E0
1.178646008E1,3.538742304E0,3.427564859E0,-4.095240593E0
1.179644908E1,3.475212336E0,3.258965969E0,-3.948022127E0
1.180644908E1,3.470936298E0,3.137403965E0,-3.673743486E0
1.181643823E1,3.453221321E0,2.955366135E0,-3.285233259E0
1.182646839E1,3.394578218E0,2.645046473E0,-2.882673025E0
1.183642746E1,3.310278654E0,2.240653753E0,-2.547919035E0
1.184645954E1,3.224146843E0,1.855197787E0,-2.312124968E0
1.185644662E1,3.096475840E0,1.324966669E0,-2.011579275E0
1.186644654E1,2.981022358E0,9.230173826E-1,-1.758681059E0
1.187643577E1,2.847242832E0,5.357288122E-1,-1.428813815E0
1.188646600E1,2.732400179E0,2.724458873E-1,-1.073901057E0
1.189642477E1,2.654209375E0,1.301143020E-1,-7.990117669E-1
1.190645493E1,2.639548779E0,7.635815442E-2,-6.524040699E-1
1.191644416E1,2.632218361E0,1.111774743E-1,-6.530149579E-1
1.192644623E1,2.526538610E0,1.740965992E-1,-7.947356701E-1
1.193643331E1,2.241875410E0,2.712241709E-1,-9.938777685E-1
1.194646570E1,1.736078978E0,3.982841372E-1,-1.150259256E0
1.195642231E1,9.676105380E-1,5.442809463E-1,-1.142318010E0
1.196645577E1,-2.260201424E-2,5.858197808E-1,-8.912523985E-1
1.197644170E1,-1.094059706E0,5.241223574E-1,-3.750712574E-1
1.198644377E1,-2.090380907E0,3.640756905E-1,3.518583775E-1
1.199643085E1,-2.866179705E0,5.375614017E-2,1.152702689E0
1.200646170E1,-3.306613684E0,-3.316998184E-1,1.872301936E0
1.201641985E1,-3.395189047E0,-7.550294399E-1,2.431243658E0
1.202645216E1,-3.148399591E0,-1.189965487E0,2.808147430E0
1.203643923E1,-2.737287045E0,-1.520443559E0,3.057991505E0
1.204647185E1,-2.563190460E0,-1.811215401E0,3.371976137E0
1.205642839E1,-2.930931330E0,-2.244929790E0,3.882659435E0
1.206646100E1,-3.780034065E0,-2.656042099E0,4.535063744E0
1.207644808E1,-4.789183617E0,-2.919325113E0,5.227784634E0
1.208644785E1,-5.579032421E0,-3.184440613E0,5.869803905E0
1.209643677E1,-5.851478100E0,-3.773925543E0,6.269920826E0
1.210646754E1,-5.275432110E0,-4.547891617E0,6.289468765E0
1.211642593E1,-3.866776943E0,-4.881423950E0,5.863695621E0
1.212645639E1,-2.151467323E0,-4.442822933E0,5.087285995E0
1.213644562E1,-9.376781583E-1,-3.501479626E0,4.409836292E0
1.214644754E1,-1.032973170E0,-2.395813465E0,3.896709442E0
1.215643454E1,-1.931555867E0,-1.778839588E0,3.525303364E0
1.216646716E1,-2.895501375E0,-1.288314819E0,3.100751877E0
1.217642347E1,-3.638313293E0,-1.040914416E0,2.702467918E0
1.218645585E1,-4.037819386E0,-9.896016717E-1,2.378098488E0
1.219644324E1,-4.078136444E0,-1.164309144E0,2.147191286E0
1.220644500E1,-3.794084072E0,-1.483791709E0,1.996307611E0
1.221643208E1,-3.290120125E0,-1.843591332E0,1.862528086E0
1.222646224E1,-2.715906858E0,-2.175901890E0,1.680490255E0
1.223642108E1,-2.207056046E0,-2.401922226E0,1.453859329E0
1.224645124E1,-1.872301936E0,-2.458121777E0,1.241278172E0
1.225644070E1,-1.722640038E0,-2.354274750E0,1.067792416E0
1.226644108E1,-1.715920448E0,-2.097711325E0,9.132435322E-1
1.227642962E1,-1.794722080E0,-1.715309620E0,7.415903807E-1
1.228646070E1,-1.872912884E0,-1.229671717E0,5.210680366E-1
1.229644908E1,-1.874745488E0,-7.397578359E-1,2.382374406E-1
1.230645177E1,-1.751961470E0,-3.341432810E-1,-8.368854225E-2
1.231643824E1,-1.509448051E0,5.619960278E-2,-4.233296216E-1
1.232647124E1,-1.157589674E0,4.257730842E-1,-7.819074988E-1
1.233642716E1,-7.318165898E-1,8.362745047E-1,-1.191798091E0
1.234646047E1,-3.084869385E-1,1.299310327E0,-1.646281838E0
1.235644662E1,6.780604273E-2,1.753794074E0,-2.128865480E0
1.236644939E1,4.367686510E-1,2.194227934E0,-2.583960056E0
1.237643585E1,8.210029006E-1,2.624277115E0,-2.974913836E0
1.238646839E1,1.268156290E0,2.964529037E0,-3.280957222E0
1.239642477E1,1.798998117E0,3.172223330E0,-3.471547127E0
1.240645739E1,2.376876593E0,3.263853073E0,-3.500257969E0
1.241644416E1,2.939483643E0,3.207653284E0,-3.276681185E0
1.242644870E1,3.521638155E0,3.036000252E0,-2.896723032E0
1.243643339E1,4.721377373E0,2.824640989E0,-2.553416729E0
1.244646470E1,5.751296520E0,2.464230299E0,-2.775771618E0
1.245642170E1,6.701191902E0,1.776396155E0,-3.299283266E0
1.246645424E1,7.233866215E0,9.053022861E-1,-3.885102987E0
1.247644131E1,7.111082554E0,2.217440903E-1,-4.373184204E0
1.248644108E1,6.431189537E0,2.070833147E-1,-4.572326183E0
1.249643031E1,5.401270390E0,7.788531780E-1,-4.561330795E0
1.250646070E1,4.260785103E0,1.487456918E0,-4.406170845E0
1.251641924E1,3.219870806E0,2.100154638E0,-4.153883457E0
1.252644970E1,2.376876593E0,2.533258200E0,-3.863722563E0
1.253643893E1,1.770898342E0,2.742174149E0,-3.525303364E0
1.254646993E1,1.381777167E0,2.780047655E0,-3.131906033E0
1.255642847E1,1.161254883E0,2.642603159E0,-2.717739582E0
1.256645885E1,1.101390004E0,2.254092693E0,-2.273029566E0
1.257644785E1,1.169806957E0,1.715920448E0,-1.827708840E0
1.258644993E1,1.291369081E0,1.166141748E0,-1.470352650E0
1.259643700E1,1.402546644E0,6.743952036E-1,-1.204626322E0
1.260646724E1,1.433700681E0,3.475823104E-1,-9.877691269E-1
1.261642601E1,1.346346974E0,1.557706445E-1,-7.617489696E-1
1.262645639E1,1.189965487E0,5.253441259E-2,-4.856378734E-1
1.263644539E1,1.009760261E0,7.024950534E-2,-2.125810981E-1
1.264644539E1,8.619308472E-1,1.441642046E-1,2.443460980E-3
1.265643431E1,7.935139537E-1,2.058615834E-1,1.380555481E-1
1.266646470E1,7.550294399E-1,2.858849466E-1,2.015855312E-1
1.267642354E1,6.414085031E-1,3.103195429E-1,2.266310006E-1
1.268645454E1,4.050036669E-1,2.437352389E-1,2.999348342E-1
1.269644293E1,3.115412779E-2,1.362229437E-1,5.216789246E-1
1.270644293E1,-4.917465150E-1,-5.375614017E-2,9.908234477E-1
1.271643208E1,-1.123381138E0,-4.159992337E-1,1.697594523E0
1.272646254E1,-1.985922933E0,-1.116050839E0,2.965750694E0
1.273642108E1,-2.312124968E0,-1.547321677E0,3.739717007E0
1.274645154E1,-2.384207010E0,-1.867415071E0,4.280943871E0
1.275644070E1,-2.252260208E0,-2.032348633E0,4.554000378E0
1.276644262E1,-2.140471935E0,-2.139250040E0,4.724431992E0
1.277642962E1,-2.370157242E0,-2.437963247E0,5.170974255E0
1.278646439E1,-2.948035717E0,-2.938261747E0,6.031683445E0
1.279644931E1,-3.579670429E0,-3.332880735E0,6.968750954E0
1.280644877E1,-3.917478800E0,-3.375641346E0,7.571063995E0
1.281643800E1,-3.779423237E0,-3.129462719E0,7.744549751E0
1.282646870E1,-3.269961596E0,-2.734232903E0,7.621154785E0
1.283642724E1,-2.692083120E0,-2.278527260E0,7.241196632E0
1.284645762E1,-2.188730240E0,-1.759902716E0,6.484945297E0
1.285644685E1,-1.769065738E0,-1.240667343E0,5.497786999E0
1.286644878E1,-1.483791709E0,-1.006705880E0,4.646852016E0
1.287643578E1,-1.431257248E0,-9.712757468E-1,4.104403496E0
1.288646839E1,-1.627344966E0,-8.796459436E-1,3.765984297E0
1.289642470E1,-1.955379605E0,-6.285803318E-1,3.406184673E0
1.290645739E1,-2.313346624E0,-2.901609838E-1,2.971859455E0
1.291644447E1,-2.640770435E0,-1.038470957E-2,2.521040916E0
1.292644600E1,-2.874731779E0,1.295034289E-1,2.061059237E0
1.293643331E1,-2.962696552E0,1.563815027E-1,1.626123309E0
1.294646562E1,-2.933374882E0,1.117883399E-1,1.255938888E0
1.295642231E1,-2.846021175E0,-3.054326167E-3,9.132435322E-1
1.296645247E1,-2.722626448E0,-1.301143020E-1,6.059783101E-1
1.297644193E1,-2.582127333E0,-2.461786866E-1,3.946189582E-1
1.298644162E1,-2.443460941E0,-3.066543639E-1,2.577851415E-1
1.299643085E1,-2.311514139E0,-3.158173263E-1,1.441642046E-1
1.300646170E1,-2.176512957E0,-3.017674387E-1,1.221730467E-2
1.301641985E1,-1.918116927E0,-2.474004179E-1,-2.608394623E-1
1.302645085E1,-1.717753053E0,-1.576032341E-1,-4.850270152E-1
1.303643947E1,-1.528384805E0,-4.764748737E-2,-7.440338731E-1
1.304647031E1,-1.320690632E0,9.957103431E-2,-1.032973170E0
1.305642839E1,-1.132544160E0,2.913827300E-1,-1.367116451E0
1.306645947E1,-9.743300676E-1,5.534439087E-1,-1.766622305E0
1.307644785E1,-8.075638413E-1,9.022479653E-1,-2.162462950E0
1.308645001E1,-5.998696685E-1,1.357342601E0,-2.537534237E0
1.309643701E1,-3.323107064E-1,1.906510472E0,-2.926044464E0
1.310646939E1,4.703662544E-2,2.427578449E0,-3.285233259E0
1.311642601E1,6.169738770E-1,2.708576441E0,-3.558290005E0
1.312645639E1,1.445918083E0,2.772106409E0,-3.772092819E0
1.313644539E1,2.444071770E0,2.761111021E0,-4.028656483E0
1.314644754E1,3.412904024E0,2.768441200E0,-4.379903793E0
1.315643462E1,4.158770561E0,2.856405973E0,-4.754974842E0
1.316646716E1,4.635245323E0,3.037832975E0,-4.965723515E0
1.317642347E1,4.921130180E0,3.312111378E0,-4.900971889E0
1.318645608E1,5.122105122E0,3.393967390E0,-4.415945053E0
1.319644293E1,5.385387897E0,2.554638386E0,-3.762929916E0
1.320644501E1,5.902180195E0,1.293201685E0,-3.756210327E0
1.321643208E1,6.470895767E0,5.149593949E-1,-4.508185387E0
1.322646231E1,6.454401970E0,2.932153046E-1,-5.259549618E0
1.323642108E1,5.895460606E0,5.668829679E-1,-5.339572906E0
1.324645147E1,5.071403027E0,1.288314819E0,-5.019479752E0
1.325644070E1,4.017049789E0,2.010968447E0,-4.709771156E0
1.326644262E1,2.855794907E0,2.510656118E0,-4.514904976E0
1.327642993E1,1.791667819E0,2.853962421E0,-4.300491333E0
1.328646224E1,9.963212013E-1,3.081204414E0,-3.932750463E0
1.329644908E1,5.326744914E-1,3.167336226E0,-3.401297569E0
1.330644908E1,4.123340547E-1,2.852740765E0,-2.558303595E0
1.331643824E1,6.249151230E-1,2.342668295E0,-2.079385281E0
1.332646847E1,9.523389339E-1,1.713477015E0,-1.717142224E0
1.333642724E1,1.257771492E0,1.139263630E0,-1.439198494E0
1.334645770E1,1.401324868E0,7.330383062E-1,-1.191187263E0
1.335644685E1,1.349401355E0,5.241223574E-1,-9.358455539E-1
1.336647731E1,1.173472166E0,4.954117239E-1,-6.695083380E-1
1.337643578E1,9.468411207E-1,6.096435189E-1,-4.141666293E-1
1.338646601E1,7.000515461E-1,7.391469479E-1,-2.015855312E-1
1.339642478E1,4.520402849E-1,8.069530129E-1,-6.108652428E-2
1.340645516E1,1.948660165E-1,7.641924024E-1,2.443460980E-3
1.341644439E1,-9.285151958E-2,5.827654600E-1,4.337143153E-2
1.342644693E1,-3.995058835E-1,2.956587672E-1,1.539380401E-1
1.343643331E1,-7.470881939E-1,-5.070181563E-2,3.824016452E-1
1.344646255E1,-1.133765936E0,-4.092797041E-1,7.806857824E-1
1.345642193E1,-1.519221902E0,-7.837401032E-1,1.368949056E0
1.346645270E1,-1.847867370E0,-1.174082994E0,2.054950714E0
1.347644131E1,-2.056172371E0,-1.544267297E0,2.670702934E0
1.348644108E1,-2.110539436E0,-1.828930497E0,3.103806257E0
1.349643032E1,-2.037846565E0,-1.965153456E0,3.326161146E0
1.350646078E1,-1.946827531E0,-1.906510472E0,3.437949657E0
1.351641947E1,-2.083050489E0,-1.905288696E0,3.765373468E0
1.352645270E1,-2.593122959E0,-2.144747972E0,4.632191181E0
1.353643885E1,-3.344487190E0,-2.539977789E0,5.928447247E0
1.354646970E1,-4.034153938E0,-2.740341425E0,7.199657917E0
1.355642839E1,-4.375016689E0,-2.570520878E0,8.098240852E0
1.356645885E1,-4.288273811E0,-2.169182539E0,8.431161880E0
1.357644808E1,-3.976121902E0,-1.677435994E0,8.049371719E0
1.358644785E1,-3.677408695E0,-1.200350165E0,7.034113407E0
1.359643701E1,-3.324939489E0,-5.589417219E-1,4.865541458E0
1.360646939E1,-2.941926956E0,-2.131919712E-1,3.550959587E0
1.361642593E1,-2.646268129E0,1.527163088E-1,2.599842548E0
1.362645832E1,-2.651155233E0,3.817907870E-1,1.942551494E0
1.363644562E1,-2.790432453E0,4.734205604E-1,1.481348276E0
1.364644747E1,-2.837469101E0,4.318817258E-1,1.201571941E0
1.365643455E1,-2.723848104E0,2.089159191E-1,1.050688267E0
1.366646470E1,-2.447736979E0,-9.468411654E-2,9.236282706E-1
1.367642347E1,-2.048841953E0,-3.671300113E-1,7.794640660E-1
1.368645370E1,-1.634675384E0,-5.907067060E-1,6.383541822E-1
1.369644316E1,-1.306640744E0,-7.525860071E-1,5.387831330E-1
1.370644285E1,-1.128878951E0,-8.277224302E-1,4.728097022E-1
1.371643208E1,-1.092227101E0,-8.222246170E-1,4.098905921E-1
1.372646293E1,-1.139874578E0,-7.544185519E-1,3.255911767E-1
1.373642108E1,-1.216232657E0,-6.395758986E-1,2.083050460E-1
1.374645185E1,-1.287093043E0,-4.880813360E-1,6.963863969E-2
1.375644070E1,-1.341460109E0,-3.335324228E-1,-7.391469181E-2
1.376644039E1,-1.340238333E0,-1.832595766E-1,-2.046398520E-1
1.377642962E1,-1.286482215E0,3.054326167E-3,-3.280346394E-1
1.378645985E1,-1.202793717E0,1.899790913E-1,-4.886921942E-1
1.379644908E1,-1.069625020E0,4.178318381E-1,-6.591235995E-1
1.380644901E1,-9.144652486E-1,6.450737119E-1,-8.600982428E-1
1.381643824E1,-7.214318514E-1,8.185594082E-1,-1.157589674E0
1.382647147E1,-3.933972120E-1,9.712757468E-1,-1.543045640E0
1.383642724E1,8.979719132E-2,1.182635069E0,-2.012800932E0
1.384645978E1,6.927211881E-1,1.484402537E0,-2.519819021E0
1.385644662E1,1.351233959E0,1.949881911E0,-2.935818434E0
1.386644878E1,1.946827531E0,2.507601738E0,-3.216205597E0
1.387643585E1,2.424524069E0,3.045774221E0,-3.385415077E0
1.388647055E1,3.028059006E0,3.418401957E0,-3.492927551E0
1.389642478E1,3.492927551E0,3.345708847E0,-3.527746677E0
1.390645947E1,4.086077690E0,3.142290831E0,-3.562566042E0
1.391644416E1,4.952895641E0,2.711019993E0,-3.320052624E0
1.392644624E1,6.051230907E0,1.677435994E0,-2.857627630E0
1.393643332E1,7.158118725E0,3.286454976E-1,-2.770884752E0
1.394646570E1,7.866722584E0,-5.784893632E-1,-3.294396162E0
1.395642232E1,7.678575993E0,-9.773843884E-1,-4.115399361E0
1.396645462E1,6.721350193E0,-8.881980777E-1,-4.502687931E0
1.397644193E1,5.463578701E0,-8.124507964E-2,-4.500854969E0
1.398644162E1,4.090964317E0,9.847147465E-1,-4.527122498E0
1.399643093E1,2.694526672E0,1.806939363E0,-4.633412838E0
1.400646347E1,1.449583173E0,2.394591808E0,-4.645630360E0
1.401641978E1,4.807509482E-1,2.794097662E0,-4.385401726E0
1.402645247E1,-1.319468915E-1,2.967583418E0,-3.845396757E0
1.403643947E1,-3.579670191E-1,2.920546770E0,-3.188716650E0
1.404647001E1,-2.046398520E-1,2.587625265E0,-2.565023184E0
1.405642847E1,2.400700450E-1,2.042733431E0,-2.011579275E0
1.406645924E1,7.458664775E-1,1.430035591E0,-1.568701982E0
1.407644785E1,1.080620646E0,8.784242272E-1,-1.247386813E0
1.408644870E1,1.185078621E0,5.259549618E-1,-9.883799553E-1
1.409643678E1,1.117883444E0,4.367686510E-1,-7.073819637E-1
1.410646785E1,9.395107627E-1,5.503895879E-1,-4.098905921E-1
1.411642601E1,7.367035151E-1,7.678576112E-1,-1.313360333E-1
1.412645616E1,6.126978397E-1,9.358455539E-1,7.269296050E-2
1.413644562E1,6.279694438E-1,9.975429177E-1,1.771509200E-1
1.414644532E1,7.128797174E-1,9.334021211E-1,2.119702399E-1
1.415643455E1,7.672467232E-1,7.452555895E-1,2.474004179E-1
1.416646562E1,7.104362845E-1,4.764748812E-1,3.310889602E-1
1.417642355E1,3.579670191E-1,6.108652451E-4,5.595525503E-1
1.418645678E1,6.108652335E-3,-3.481931984E-1,7.739662528E-1
1.419644293E1,-3.946189582E-1,-7.232644558E-1,1.034805775E0
1.420644593E1,-8.185594082E-1,-1.106887817E0,1.368949056E0
1.421643209E1,-1.217454433E0,-1.489900351E0,1.798387289E0
1.422646470E1,-1.547321677E0,-1.803885102E0,2.252871037E0
1.423642109E1,-1.788002610E0,-2.036013842E0,2.652376890E0
1.424645370E1,-1.946827531E0,-2.236988544E0,2.919935942E0
1.425644047E1,-2.123978376E0,-2.665815830E0,3.219259739E0
1.426644286E1,-2.424524069E0,-3.467881918E0,3.936415672E0
1.427642970E1,-2.834414721E0,-4.316984653E0,5.027420998E0
1.428646016E1,-3.142290831E0,-4.866763592E0,6.172182560E0
1.429644932E1,-3.025615454E0,-4.912578106E0,7.199047089E0
1.430644909E1,-2.440406561E0,-4.433049202E0,7.894822598E0
1.431643824E1,-1.577254057E0,-3.665802240E0,7.978510857E0
1.432646870E1,-6.298020482E-1,-2.731789351E0,7.291898251E0
1.433642716E1,1.814269722E-1,-1.949270964E0,6.187454224E0
1.434645986E1,5.277875662E-1,-1.670105577E0,5.193576336E0
1.435644686E1,1.295034289E-1,-1.755015850E0,4.453207493E0
1.436644878E1,-9.059131742E-1,-1.689653277E0,3.927863598E0
1.437643578E1,-2.106263399E0,-1.291369081E0,3.598607063E0
1.438646816E1,-3.109304190E0,-7.959573865E-1,3.347541571E0
1.439642478E1,-3.732386589E0,-5.381723046E-1,3.085480452E0
1.440645709E1,-3.865555286E0,-6.236934066E-1,2.825862646E0
1.441644439E1,-3.560122728E0,-9.486737251E-1,2.556471109E0
1.442644416E1,-3.020728588E0,-1.336573124E0,2.279138327E0
1.443643339E1,-2.495995283E0,-1.690264106E0,2.002416372E0
1.444646262E1,-2.154521704E0,-1.916895151E0,1.769676566E0
1.445642170E1,-2.069000483E0,-1.949270964E0,1.573588848E0
1.446634624E1,-2.205223560E0,-1.789835215E0,1.377501130E0
1.447644139E1,-2.580905676E0,-1.322523236E0,1.040914416E0
1.448644170E1,-2.758056641E0,-9.779952765E-1,7.422012687E-1
1.449643024E1,-2.763554335E0,-6.633996367E-1,3.915646076E-1
1.450646347E1,-2.590679407E0,-3.909537494E-1,4.886921961E-3
1.451641924E1,-2.310903311E0,-1.533271819E-1,-4.282165468E-1
1.452645247E1,-2.020742178E0,7.330382615E-2,-9.303477407E-1
1.453643893E1,-1.784337401E0,3.604104817E-1,-1.480126500E0
1.454647032E1,-1.622458100E0,7.263187766E-1,-2.020742178E0
1.455642839E1,-1.522887111E0,1.180191636E0,-2.588236094E0
1.456646101E1,-1.440420270E0,1.712255239E0,-3.273015976E0
1.457644786E1,-1.272432327E0,2.182621479E0,-4.004832745E0
1.458645216E1,-8.155050874E-1,2.549140692E0,-4.710381985E0
1.459643701E1,-2.443460934E-2,2.779436827E0,-5.426926613E0
1.460646939E1,8.851437569E-1,2.995683193E0,-5.981592655E0
1.461642593E1,1.616349459E0,3.156951666E0,-6.346889973E0
1.462645855E1,2.018909693E0,3.444058180E0,-6.619335651E0
1.463644539E1,2.078163624E0,3.930917740E0,-6.657820225E0
1.464644747E1,2.014633656E0,4.660902023E0,-6.570466518E0
1.465643455E1,2.172236919E0,5.313305855E0,-6.305962086E0
1.466646716E1,2.591901302E0,5.285817146E0,-5.928447247E0
1.467642347E1,3.216205597E0,4.751309872E0,-5.754961491E0
1.468645609E1,3.974289179E0,4.289495945E0,-5.812993526E0
1.469644293E1,4.584543705E0,4.095851421E0,-5.758626461E0
1.470644509E1,4.833165646E0,4.072027683E0,-5.374392509E0
1.471643216E1,4.704273224E0,4.251011372E0,-4.980995178E0
1.472646255E1,4.288273811E0,4.420831680E0,-4.758640289E0
1.473642101E1,3.730554104E0,4.483139992E0,-4.507574558E0
1.474645370E1,3.167336226E0,4.444655418E0,-4.065918922E0
1.475644070E1,2.357939959E0,4.242459297E0,-3.279735565E0
1.476644039E1,1.802052498E0,3.966959000E0,-2.803871393E0
1.477642970E1,1.250441194E0,3.618154764E0,-2.336559534E0
1.478646109E1,7.684684992E-1,3.254689932E0,-1.850921750E0
1.479644909E1,3.824016452E-1,2.890614271E0,-1.378111959E0
1.480644970E1,6.841690838E-2,2.548529863E0,-9.376781583E-1
1.481643801E1,-1.808161139E-1,2.291355610E0,-5.326744914E-1
1.482647124E1,-3.481931984E-1,2.064724445E0,-2.046398520E-1
1.483642724E1,-4.312708676E-1,1.869858503E0,3.604105115E-2
1.484646040E1,-4.471533597E-1,1.687209845E0,2.528982162E-1
1.485644662E1,-4.624249935E-1,1.425759435E0,4.721988440E-1
1.486644655E1,-5.119050741E-1,1.109942198E0,6.194173694E-1
1.487643578E1,-5.736024380E-1,9.120218158E-1,6.737843752E-1
1.488646816E1,-7.055493593E-1,8.118399382E-1,7.018841505E-1
1.489642470E1,-9.175195694E-1,6.456845403E-1,7.855727077E-1
1.490645793E1,-1.146594048E0,3.469714522E-1,9.724974632E-1
1.491644440E1,-1.375057697E0,-1.221730490E-3,1.321301579E0
1.492644478E1,-1.560760736E0,-5.082398653E-1,1.778839588E0
1.493643332E1,-1.593136549E0,-1.111774802E0,2.239432096E0
1.494646378E1,-1.485624313E0,-1.794722080E0,2.651766062E0
1.495642232E1,-1.279151797E0,-2.478280306E0,3.020728588E0
1.496645516E1,-1.086118460E0,-3.032335043E0,3.364034891E0
1.497644170E1,-1.030529618E0,-3.423288822E0,3.720169306E0
1.498644386E1,-1.115439892E0,-3.634648323E0,4.095240593E0
1.499643086E1,-1.362840414E0,-3.777590752E0,4.543615818E0
1.500646347E1,-1.887573600E0,-4.030488968E0,5.194187164E0
1.501641986E1,-2.627331495E0,-4.251011372E0,6.007248878E0
1.502645032E1,-3.354261160E0,-4.259563446E0,6.710354805E0
1.503643947E1,-3.813020945E0,-4.031099796E0,7.216762066E0
1.504646993E1,-3.607770205E0,-3.869220495E0,7.613824368E0
1.505642840E1,-2.808147430E0,-4.015828133E0,7.387193203E0
1.506645893E1,-1.700037956E0,-3.937637329E0,6.595511913E0
1.507644809E1,-6.524040699E-1,-3.553403139E0,5.533828259E0
1.508645001E1,-2.076941915E-2,-2.996294022E0,4.631580353E0
1.509643701E1,-5.986479297E-2,-2.513099670E0,4.124562263E0
1.510646940E1,-7.177666426E-1,-2.078774452E0,3.927252769E0
1.511642601E1,-1.701870561E0,-1.632231951E0,3.809355736E0
1.512645855E1,-2.536312580E0,-1.282817006E0,3.651141644E0
1.513644563E1,-2.919935942E0,-1.062294602E0,3.448334217E0
1.514644755E1,-2.871066570E0,-1.039692640E0,3.230866194E0
1.515643455E1,-2.499660492E0,-1.215621829E0,3.045163155E0
1.516646716E1,-1.941940665E0,-1.411098719E0,2.905275106E0
1.517642355E1,-1.394605398E0,-1.530217409E0,2.732400179E0
1.518645609E1,-1.030529618E0,-1.577254057E0,2.461176157E0
1.519644317E1,-9.065240026E-1,-1.505172014E0,2.129476309E0
1.520644293E1,-1.012814522E0,-1.306029916E0,1.789835215E0
1.521643209E1,-1.280984402E0,-1.025031924E0,1.455691934E0
1.522646255E1,-1.589471340E0,-6.536257863E-1,1.110553026E0
1.523642109E1,-1.828930497E0,-2.229658216E-1,7.599163651E-1
1.524645124E1,-1.944384098E0,1.576032341E-1,3.940080702E-1
1.525644070E1,-1.905288696E0,4.941899776E-1,-2.565634064E-2
1.526644109E1,-1.742798567E0,8.008443117E-1,-4.844161272E-1
1.527642970E1,-1.515556693E0,1.058629513E0,-9.572258592E-1
1.528646070E1,-1.227228284E0,1.293201685E0,-1.458746195E0
1.529644909E1,-8.906415105E-1,1.529606581E0,-1.993864179E0
1.530645209E1,-5.302310586E-1,1.764178872E0,-2.486832380E0
1.531643832E1,-1.484402567E-1,2.030516148E0,-2.875342607E0
1.532647147E1,2.309070677E-1,2.362826824E0,-3.166725397E0
1.533642724E1,6.499606371E-1,2.984076738E0,-3.495370865E0
1.534645986E1,8.381071091E-1,3.355482817E0,-3.698789120E0
1.535644686E1,1.062294602E0,3.623041868E0,-3.890600681E0
1.536648293E1,1.414153099E0,3.833790302E0,-4.043928146E0
1.537643578E1,1.855197787E0,4.062864780E0,-4.072638512E0
1.538646624E1,2.276083946E0,4.333477974E0,-3.858835697E0
1.539642478E1,2.640770435E0,4.593706608E0,-3.367089272E0
1.540645709E1,3.013398170E0,4.751920700E0,-2.560136318E0
1.541644440E1,3.514307737E0,4.400062561E0,-1.909564734E0
1.542644624E1,4.290717602E0,3.636480808E0,-2.021353006E0
1.543643340E1,5.286427975E0,2.850297213E0,-2.690861464E0
1.544646255E1,6.179512978E0,2.156965256E0,-3.356093645E0
1.545642170E1,6.646824837E0,1.715920448E0,-3.777590752E0
1.546645217E1,6.575964451E0,1.596190929E0,-4.042706013E0
1.547646092E1,6.016411781E0,1.655444860E0,-4.138000965E0
1.548646069E1,5.152648449E0,1.723250866E0,-4.104403496E0
1.549644992E1,4.162436008E0,1.817934990E0,-4.036597729E0
1.550648223E1,3.180775404E0,1.992642403E0,-3.934582949E0
1.551643885E1,2.295631647E0,2.204001904E0,-3.705508471E0
1.552647169E1,1.556484699E0,2.336559534E0,-3.368921757E0
1.553645846E1,1.032362223E0,2.306016207E0,-3.002402782E0
1.554648954E1,7.409795523E-1,2.163684607E0,-2.667037725E0
1.555644808E1,6.224716902E-1,1.937664509E0,-2.384817839E0
1.556647854E1,5.992587805E-1,1.589471340E0,-2.122145891E0
1.557646746E1,6.316346526E-1,1.185078621E0,-1.836871743E0
1.558646746E1,6.811147332E-1,8.118399382E-1,-1.548543453E0
1.559645662E1,7.055493593E-1,4.563163519E-1,-1.298699498E0
1.560648708E1,7.153232098E-1,1.136209369E-1,-1.078788042E0
1.561644562E1,7.195992470E-1,-1.594358236E-1,-8.533787727E-1
1.562647608E1,6.169738770E-1,-2.528982162E-1,-5.699372888E-1
1.563646523E1,4.404338300E-1,-1.160643995E-1,-4.398229718E-1
1.564646562E1,1.857030392E-1,3.848451003E-2,-2.883284092E-1
1.565645415E1,-1.209513173E-1,6.780604273E-2,-5.681046844E-2
1.566648523E1,-4.654793143E-1,-5.742133409E-2,2.596177161E-1
1.567644315E1,-8.130616546E-1,-3.408628106E-1,6.560692787E-1
1.568647331E1,-1.126435518E0,-7.593054771E-1,1.141096234E0
1.569646254E1,-1.369559884E0,-1.250441194E0,1.671327353E0
1.570646316E1,-1.504561067E0,-1.728748679E0,2.174680233E0
1.571645169E1,-1.517389297E0,-2.062891960E0,2.593733788E0
1.572648223E1,-1.416596532E0,-2.206445217E0,2.945592165E0
1.573644069E1,-1.238834739E0,-2.108095884E0,3.226590157E0
1.574647331E1,-1.128268123E0,-1.817324162E0,3.450166941E0
1.575646031E1,-1.242499948E0,-1.598023534E0,3.791640520E0
1.576646008E1,-1.667051196E0,-1.646892667E0,4.494746685E0
1.577644923E1,-2.328618288E0,-1.937053680E0,5.493511200E0
1.578648162E1,-3.025004625E0,-2.254703522E0,6.473339081E0
1.579646892E1,-3.550348759E0,-2.417804718E0,7.271129131E0
1.580646869E1,-3.702454329E0,-2.595566511E0,7.836179256E0
1.581645785E1,-3.376863003E0,-2.733011007E0,8.054868698E0
1.582648831E1,-2.671313763E0,-2.571742773E0,7.732332230E0
1.583644677E1,-1.810604572E0,-2.094046116E0,6.876510143E0
1.584647731E1,-1.094059706E0,-1.579697490E0,5.866138935E0
1.585646623E1,-8.368853927E-1,-1.197906733E0,5.010316849E0
1.586646839E1,-1.217454433E0,-9.981538057E-1,4.372573376E0
1.587645539E1,-2.067778826E0,-8.625417352E-1,3.871663809E0
1.588648800E1,-2.995683193E0,-6.059783101E-1,3.456886530E0
1.589644431E1,-3.696345568E0,-3.152064681E-1,3.119077921E0
1.590647669E1,-4.074470997E0,-2.095267773E-1,2.829527855E0
1.591646400E1,-4.007276058E0,-5.216789246E-1,2.462397814E0
1.592646562E1,-3.641367674E0,-8.778133392E-1,2.249205828E0
1.593645269E1,-3.201544762E0,-1.231504321E0,2.026240110E0
1.594648316E1,-2.817310572E0,-1.500285029E0,1.783726573E0
1.595644192E1,-2.559525490E0,-1.648725271E0,1.588249683E0
1.596647231E1,-2.446515322E0,-1.678046823E0,1.439198494E0
1.597646154E1,-2.433076382E0,-1.599245191E0,1.251052022E0
1.598646100E1,-2.429411173E0,-1.403768301E0,9.889908433E-1
1.599645046E1,-2.397035122E0,-1.125824690E0,7.116580009E-1
1.600648069E1,-2.339613914E0,-8.020660877E-1,4.300491214E-1
1.601643939E1,-2.255314589E0,-4.746423066E-1,8.918632567E-2
1.602647046E1,-2.119091511E0,-1.404990107E-1,-3.262020350E-1
1.603645908E1,-1.920560360E0,2.260201424E-1,-7.812966704E-1
1.604649208E1,-1.658499122E0,6.102544069E-1,-1.260825872E0
1.605644800E1,-1.338405728E0,1.019534111E0,-1.734246373E0
1.606648123E1,-9.615018964E-1,1.362229466E0,-2.205223560E0
1.607646746E1,-5.002986193E-1,1.666440368E0,-2.639548779E0
1.608647046E1,-1.038470957E-2,1.982868552E0,-3.012176514E0
1.609645662E1,4.147774875E-1,2.270586014E0,-3.377473831E0
1.610648900E1,7.867944241E-1,2.581516504E0,-3.769038677E0
1.611644554E1,1.161254883E0,2.908329487E0,-4.097683907E0
1.612647816E1,1.554041147E0,3.201544762E0,-4.313319683E0
1.613646500E1,1.968207836E0,3.364034891E0,-4.327369213E0
1.614646739E1,2.425135136E0,3.331659079E0,-4.108679771E0
1.615645416E1,2.983465910E0,3.075706482E0,-3.730554104E0
1.616648677E1,3.777590752E0,2.562579632E0,-3.418401957E0
1.617644308E1,4.928460598E0,1.999361992E0,-3.610824347E0
1.618647546E1,6.233880043E0,1.451415777E0,-4.332867146E0
1.619646277E1,7.154453754E0,8.295549750E-1,-5.035973072E0
1.620646469E1,7.086647511E0,-3.237585723E-2,-5.577810764E0
1.621645177E1,6.330396652E0,-4.214970022E-2,-5.524665356E0
1.622648192E1,5.387831688E0,3.371976018E-1,-5.307807922E0
1.623644069E1,4.383568764E0,8.014551997E-1,-5.132489681E0
1.624647116E1,3.379917383E0,1.240667343E0,-5.050023079E0
1.625646031E1,2.428800106E0,1.668272972E0,-4.923573971E0
1.626646008E1,1.533882618E0,2.029294252E0,-4.697553635E0
1.627644931E1,7.733554244E-1,2.245540619E0,-4.381736279E0
1.628647969E1,2.834414840E-1,2.325563908E0,-3.955352545E0
1.629646893E1,1.038470939E-1,2.277916431E0,-3.470936298E0
1.630646869E1,1.661553532E-1,2.062891960E0,-3.010954857E0
1.631645785E1,3.494149148E-1,1.734857321E0,-2.629774809E0
1.632648839E1,5.681046844E-1,1.370781660E0,-2.329229116E0
1.633644685E1,7.776314616E-1,1.073901057E0,-2.069611549E0
1.634647723E1,9.340129495E-1,9.407324791E-1,-1.824654460E0
1.635646646E1,1.029918790E0,9.535606503E-1,-1.562593341E0
1.636646623E1,1.072679400E0,1.109942198E0,-1.294423461E0
1.637645539E1,1.053742528E0,1.331075311E0,-1.050688267E0
1.638648646E1,9.547823668E-1,1.465465665E0,-8.301658630E-1
1.639644462E1,7.397578359E-1,1.463633180E0,-6.377432942E-1
1.640647754E1,3.824016452E-1,1.313971162E0,-4.593706727E-1
1.641646400E1,-8.246681094E-2,1.123992085E0,-2.260201424E-1
1.642646593E1,-5.998696685E-1,8.949176073E-1,1.521054506E-1
1.643645293E1,-1.129489779E0,6.243042946E-1,6.847799420E-1
1.644648216E1,-1.601688623E0,3.017674387E-1,1.334740520E0
1.645644154E1,-1.947438359E0,-7.024950534E-2,1.993864179E0
1.646647231E1,-2.131919622E0,-4.312708676E-1,2.524706125E0
1.647646093E1,-2.144747972E0,-6.756169796E-1,2.894890308E0
1.648646093E1,-2.013411760E0,-7.678576112E-1,3.141069174E0
1.649644985E1,-1.692096710E0,-6.359107494E-1,3.409849882E0
1.650648039E1,-1.488067746E0,-5.497786999E-1,3.735440969E0
1.651643908E1,-1.440420270E0,-6.145304441E-1,4.497189999E0
1.652646954E1,-1.694540143E0,-9.181304574E-1,5.667607784E0
1.653645854E1,-2.103209019E0,-1.310305953E0,6.853908062E0
1.654648954E1,-2.389704943E0,-1.548543453E0,7.579005241E0
1.655644800E1,-2.403143883E0,-1.568091035E0,7.558235645E0
1.656647854E1,-2.233934164E0,-1.456913590E0,7.030447960E0
1.657646746E1,-1.990198970E0,-1.307862520E0,6.407976627E0
1.658646962E1,-1.763567924E0,-1.099557400E0,5.835595608E0
1.659645662E1,-1.572367191E0,-8.955284357E-1,5.327966690E0
1.660648923E1,-1.511891484E0,-7.293730974E-1,4.824002743E0
1.661644562E1,-1.712866187E0,-5.687155724E-1,4.211305141E0
1.662647816E1,-2.119702339E0,-4.196644127E-1,3.604104996E0
1.663646523E1,-2.626109600E0,-2.809980214E-1,3.065321684E0
1.664646716E1,-3.134349585E0,-1.490511149E-1,2.619390249E0
1.665645416E1,-3.521638155E0,-1.093448773E-1,2.309681416E0
1.666648647E1,-3.701232433E0,-1.954768747E-1,2.100154638E0
1.667644308E1,-3.649308920E0,-4.483750761E-1,1.938886285E0
1.668647354E1,-3.376863003E0,-8.539896011E-1,1.789835215E0
1.669646277E1,-2.949257374E0,-1.302975535E0,1.615127683E0
1.670646246E1,-2.502714872E0,-1.651779652E0,1.398270488E0
1.671645170E1,-2.189341068E0,-1.847256541E0,1.153924465E0
1.672648193E1,-2.043955088E0,-1.864971638E0,9.205739498E-1
1.673644062E1,-2.019520521E0,-1.685377240E0,6.908885837E-1
1.674647108E1,-2.062891960E0,-1.346957922E0,4.569272101E-1
1.675646031E1,-2.087937355E0,-9.566149712E-1,2.070833147E-1
1.676646070E1,-2.007914066E0,-5.638286471E-1,-8.796459436E-2
1.677644931E1,-1.791667819E0,-2.046398520E-1,-4.386012554E-1
1.678648223E1,-1.290758252E0,2.315179259E-1,-9.957103729E-1
1.679646870E1,-8.802568316E-1,4.233296216E-1,-1.318247199E0
1.680646870E1,-4.434881806E-1,5.626068711E-1,-1.583362699E0
1.681645785E1,-3.543018550E-2,6.530149579E-1,-1.822821856E0
1.682648831E1,2.919935882E-1,7.299839854E-1,-2.083050489E0
1.683644685E1,5.277875662E-1,8.631525636E-1,-2.362215996E0
1.684647793E1,6.786713004E-1,1.121548533E0,-2.639548779E0
1.685646623E1,7.574729323E-1,1.417207360E0,-2.929709673E0
1.686646708E1,8.026769161E-1,1.727526903E0,-3.181386232E0
1.687645546E1,8.759807348E-1,1.965764403E0,-3.371365309E0
1.688648646E1,1.058629513E0,2.098322153E0,-3.441614866E0
1.689644431E1,1.339016676E0,2.114204645E0,-3.352428436E0
1.690647693E1,1.780061364E0,1.956601381E0,-3.070208788E0
1.691646377E1,2.571742773E0,1.587027907E0,-2.576018810E0
1.692646593E1,3.858224869E0,1.128878951E0,-2.254703522E0
1.693645293E1,5.464800358E0,7.086036801E-1,-2.484999895E0
1.694648531E1,6.935763836E0,1.466076523E-1,-3.201544762E0
1.695644193E1,7.836179256E0,-6.383541822E-1,-4.142888069E0
1.696647446E1,7.913759232E0,-1.210734963E0,-4.889365196E0
1.697646131E1,7.235087872E0,-1.216843605E0,-5.315749168E0
1.698646124E1,5.923560143E0,-6.890559793E-1,-5.579032421E0
1.699645054E1,4.188092232E0,1.313360333E-1,-5.756793976E0
1.700648308E1,2.398867846E0,9.706648588E-1,-5.745187759E0
1.701643946E1,9.450085163E-1,1.649947047E0,-5.443420410E0
1.702647208E1,-4.886921868E-2,2.132530689E0,-4.969999790E0
1.703645908E1,-6.279694438E-1,2.458732605E0,-4.467257500E0
1.704648931E1,-8.411614299E-1,2.586403370E0,-3.970624208E0
1.705644800E1,-7.531968355E-1,2.510045290E0,-3.488040447E0
1.706648070E1,-4.721988440E-1,2.279138327E0,-3.067765236E0
1.707646747E1,1.832595654E-2,1.773952723E0,-2.626720667E0
1.708646747E1,2.663372457E-1,1.463022232E0,-2.431243658E0
1.709645662E1,4.056145251E-1,1.265101910E0,-2.276694775E0
1.710648747E1,4.196644127E-1,1.207680583E0,-2.106263399E0
1.711644562E1,3.298672438E-1,1.244332552E0,-1.869858503E0
1.712647670E1,1.887573600E-1,1.372614264E0,-1.585195303E0
1.713646524E1,-1.221730490E-3,1.555262923E0,-1.287093043E0
1.714646493E1,-2.803871334E-1,1.769676566E0,-9.388998747E-1
1.715645416E1,-6.126978397E-1,1.803885102E0,-5.558874011E-1
1.716648462E1,-9.065240026E-1,1.448972344E0,-1.380555481E-1
1.717644316E1,-1.076955438E0,8.594874144E-1,3.207042515E-1
1.718647416E1,-1.145372391E0,1.740965992E-1,7.403686643E-1
1.719646277E1,-1.182635069E0,-5.375614166E-1,1.112385631E0
1.720646308E1,-1.218676209E0,-1.139263630E0,1.519221902E0
1.721645170E1,-1.260215044E0,-1.549154282E0,2.079996109E0
1.722648285E1,-1.323134065E0,-1.667662144E0,2.794708490E0
1.723644070E1,-1.371392488E0,-1.602299571E0,3.525914192E0
1.724647331E1,-1.330464482E0,-1.482569933E0,4.146553516E0
1.725646031E1,-1.215011001E0,-1.441031098E0,4.486805439E0
1.726646008E1,-1.130100727E0,-1.608408213E0,4.504520416E0
1.727644924E1,-1.275486588E0,-1.953547001E0,4.509407043E0
1.728648185E1,-1.756237626E0,-2.374433279E0,4.863098145E0
1.729646893E1,-2.500882387E0,-2.811812639E0,5.645616531E0
1.730647085E1,-3.298672438E0,-2.885727406E0,6.523429871E0
1.731645793E1,-3.885713816E0,-2.598009825E0,7.016398430E0
1.732648831E1,-3.899152756E0,-2.324953079E0,6.779993534E0
1.733644685E1,-3.149010420E0,-2.040900707E0,5.871636868E0
1.734647947E1,-2.029294252E0,-1.685988069E0,4.643186569E0
1.735646647E1,-1.187522054E0,-1.367116451E0,3.492316723E0
1.736650062E1,-1.169806957E0,-1.100779176E0,2.368324518E0
1.737645539E1,-1.769065738E0,-9.633345008E-1,2.046398640E0
1.738648585E1,-2.376265764E0,-9.334021211E-1,1.952325344E0
1.739644439E1,-2.681698322E0,-1.079398870E0,1.948660135E0
1.740647477E1,-2.636494398E0,-1.368949056E0,1.898569226E0
1.741646400E1,-2.338392258E0,-1.731192112E0,1.778228760E0
1.742646377E1,-1.965153456E0,-2.075720072E0,1.643227458E0
1.743645300E1,-1.685988069E0,-2.318844557E0,1.527773976E0
1.744648224E1,-1.577254057E0,-2.431243658E0,1.434311628E0
1.745644131E1,-1.626734138E0,-2.367102861E0,1.352455616E0
1.746647170E1,-1.786780834E0,-2.194227934E0,1.246165156E0
1.747646100E1,-1.971873045E0,-1.962710023E0,1.103833556E0
1.748646062E1,-2.107485056E0,-1.738522530E0,9.334021211E-1
1.749645016E1,-2.150245667E0,-1.558317184E0,7.483099103E-1
1.750648093E1,-2.090991735E0,-1.378722906E0,5.412266254E-1
1.751643885E1,-1.933388472E0,-1.204626322E0,3.194825351E-1
1.752646993E1,-1.698205352E0,-1.035416603E0,9.896016866E-2
1.753645854E1,-1.428202987E0,-8.521569967E-1,-1.551597714E-1
1.754648993E1,-1.166141748E0,-6.359107494E-1,-4.557054639E-1
1.755644800E1,-9.254608750E-1,-3.720169365E-1,-8.118399382E-1
1.756648124E1,-7.049384713E-1,-5.986479297E-2,-1.213178396E0
1.757646747E1,-5.070181489E-1,2.981022298E-1,-1.666440368E0
1.758646962E1,-3.005456924E-1,7.305948138E-1,-2.115426302E0
1.759645662E1,-8.307767659E-2,1.212567568E0,-2.453234911E0
1.760648924E1,1.569923609E-1,1.739744186E0,-2.634661913E0
1.761644554E1,4.691445231E-1,2.276083946E0,-2.744617462E0
1.762647885E1,9.028588533E-1,2.665815830E0,-2.813034534E0
1.763646524E1,1.479515672E0,2.863736153E0,-2.839912415E0
1.764646708E1,2.176512957E0,2.914438009E0,-2.798373699E0
1.765645424E1,3.472157955E0,2.537534237E0,-2.524095297E0
1.766648654E1,4.603480339E0,2.173458576E0,-2.359772444E0
1.767644316E1,5.919895172E0,1.891849637E0,-2.508212805E0
1.768647547E1,7.120856285E0,1.550986886E0,-2.942537785E0
1.769646254E1,7.805635929E0,8.759807348E-1,-3.535687923E0
1.770646462E1,7.697513103E0,4.886921961E-3,-4.272391319E0
1.771645178E1,6.816645145E0,-5.564982295E-1,-4.921741486E0
1.772648185E1,5.446474552E0,-4.538728893E-1,-5.409211636E0
1.773644070E1,3.800803661E0,1.905899495E-1,-5.682268620E0
1.774647331E1,2.110539436E0,9.071348906E-1,-5.626069069E0
1.775646031E1,6.750060916E-1,1.541823864E0,-5.323079586E0
1.776646247E1,-3.237585723E-1,2.093435287E0,-4.938234806E0
1.777644924E1,-8.998045325E-1,2.466673851E0,-4.584543705E0
1.778647970E1,-1.112996459E0,2.662761688E0,-4.274224281E0
1.779646870E1,-1.022588372E0,2.634050846E0,-3.944967747E0
1.780646862E1,-6.890559793E-1,2.361604929E0,-3.554013968E0
1.781645785E1,-2.119702399E-1,1.935831904E0,-3.137403965E0
1.782648901E1,3.036000133E-1,1.409876943E0,-2.755613089E0
1.783644685E1,7.568620443E-1,8.772025108E-1,-2.403143883E0
1.784647762E1,1.086118460E0,5.186246037E-1,-2.047009468E0
1.785646624E1,1.257771492E0,3.952298164E-1,-1.663386106E0
1.786646685E1,1.258993268E0,4.612032473E-1,-1.278540969E0
1.787645539E1,1.087950945E0,5.968153477E-1,-9.407324791E-1
1.788648562E1,7.971791625E-1,7.238753438E-1,-6.792821288E-1
1.789644439E1,4.294382632E-1,8.142833710E-1,-5.161811113E-1
1.790647539E1,-2.443460980E-3,8.051204085E-1,-4.630358517E-1
1.791646378E1,-4.868595898E-1,6.914994717E-1,-4.245513380E-1
1.792646370E1,-9.645562172E-1,4.838052690E-1,-2.315179259E-1
1.793645293E1,-1.392161846E0,1.991420686E-1,2.412917763E-1
1.794648339E1,-1.867415071E0,-4.948008358E-1,1.514334917E0
1.795644193E1,-1.958433986E0,-1.007927656E0,2.461786985E0
1.796647293E1,-1.809993744E0,-1.412320495E0,3.246137857E0
1.797646131E1,-1.483180761E0,-1.720807433E0,3.778812408E0
1.798646370E1,-1.066570759E0,-1.952936172E0,4.075693130E0
1.799645047E1,-6.750060916E-1,-2.145969629E0,4.254676342E0
1.800648308E1,-4.361577928E-1,-2.372600555E0,4.528344154E0
1.801643947E1,-4.740314186E-1,-2.725069761E0,5.137987614E0
1.802646993E1,-8.075638413E-1,-3.141069174E0,6.069557190E0
1.803645908E1,-1.280984402E0,-3.299283266E0,7.038389206E0
1.804648954E1,-1.734246373E0,-3.116634369E0,7.835568428E0
1.805644801E1,-1.996307611E0,-2.899777412E0,8.347473145E0
1.806647847E1,-1.921171188E0,-2.698802710E0,8.478199005E0
1.807646770E1,-1.538769603E0,-2.504547596E0,8.229576111E0
1.808646747E1,-9.963212013E-1,-2.129476309E0,7.575950623E0
1.809645639E1,-5.467243791E-1,-1.601688623E0,6.585738182E0
1.810648924E1,-4.929682612E-1,-1.222341299E0,5.604688644E0
1.811644562E1,-8.753699064E-1,-1.080620646E0,4.869817734E0
1.812647824E1,-1.472796082E0,-8.527678847E-1,4.475198746E0
1.813646524E1,-2.084882975E0,-6.395758986E-1,4.238793850E0
1.814646716E1,-2.613281488E0,-4.086688459E-1,3.896098614E0
1.815645416E1,-2.971248627E0,-2.174680233E-1,3.481321096E0
1.816648678E1,-3.112969398E0,-1.960877478E-1,3.104417086E0
1.817644308E1,-3.024393797E0,-2.938261926E-1,2.759278297E0
1.818647547E1,-2.769052267E0,-4.337143302E-1,2.432465315E0
1.819646278E1,-2.471560717E0,-5.723807216E-1,2.123978376E0
1.820646247E1,-2.244318962E0,-6.994407177E-1,1.806939363E0
1.821645170E1,-2.108706713E0,-8.203920126E-1,1.503950238E0
1.822648193E1,-2.032959461E0,-8.387179971E-1,1.260215044E0
1.823644070E1,-2.038457394E0,-7.281513810E-1,9.297369123E-1
1.824647170E1,-2.030516148E0,-5.546656251E-1,6.847799420E-1
1.825646031E1,-1.966986060E0,-3.543018401E-1,4.172209501E-1
1.826646062E1,-1.841147900E0,-1.569923609E-1,1.252273768E-1
1.827644932E1,-1.661553502E0,6.658431143E-2,-2.107485086E-1
1.828648032E1,-1.453248382E0,2.993239760E-1,-5.986479521E-1
1.829646893E1,-1.240667343E0,5.247332454E-1,-1.034194827E0
1.830646862E1,-1.042136073E0,7.312057018E-1,-1.521665335E0
1.831645785E1,-8.759807348E-1,9.114109278E-1,-2.009746552E0
1.832648832E1,-7.483099103E-1,1.120937705E0,-2.471560717E0
1.833644678E1,-6.084218025E-1,1.408044338E0,-2.928488016E0
1.834648008E1,-3.439171314E-1,1.780672193E0,-3.346319914E0
1.835646624E1,9.529497474E-2,2.246762276E0,-3.762319088E0
1.836646839E1,7.257078886E-1,2.759278297E0,-4.148996830E0
1.837645547E1,1.546710849E0,3.123964787E0,-4.379292965E0
1.838649016E1,2.552805901E0,3.041497946E0,-4.319427967E0
1.839644439E1,3.755599499E0,2.603507757E0,-4.105014324E0
1.840647693E1,5.087896824E0,2.337781191E0,-4.222911358E0
1.841646378E1,6.294355392E0,2.180178165E0,-4.910134792E0
1.842646562E1,6.929044247E0,1.801441550E0,-5.711589813E0
1.843645301E1,6.666372299E0,1.400103092E0,-6.150802135E0
1.844648216E1,5.548489094E0,1.291369081E0,-6.356663704E0
1.845644132E1,4.009108543E0,1.704924941E0,-6.354831219E0
1.846647178E1,2.613281488E0,2.378709316E0,-6.269309998E0
1.847646093E1,1.548543453E0,3.054326296E0,-6.153856277E0
1.848646093E1,7.122688890E-1,3.464216709E0,-5.879578114E0
1.849644993E1,9.285151958E-2,3.624874353E0,-5.392107487E0
1.850648032E1,-2.620611787E-1,3.619376659E0,-4.761083603E0
1.851643885E1,-2.987131178E-1,3.414736748E0,-4.053091049E0
1.852647147E1,2.009746730E-1,2.836858273E0,-3.110525846E0
1.853645855E1,6.572909951E-1,2.378098488E0,-2.687196255E0
1.854648955E1,1.036027431E0,1.879632354E0,-2.334116220E0
1.855644801E1,1.252884626E0,1.555262923E0,-2.004248857E0
1.856647855E1,1.260825872E0,1.423926830E0,-1.707368374E0
1.857646747E1,1.092227101E0,1.428813815E0,-1.426370382E0
1.858646832E1,8.429940343E-1,1.475239515E0,-1.128268123E0
1.859645662E1,6.285803318E-1,1.508226275E0,-7.922922373E-1
1.860648747E1,4.899139404E-1,1.546710849E0,-4.764748812E-1
1.861644562E1,4.214970171E-1,1.521665335E0,-2.467895597E-1
1.862647578E1,4.117231667E-1,1.388496757E0,-1.130100712E-1
1.863646524E1,3.995058835E-1,1.180191636E0,-5.314527452E-2
1.864646555E1,3.023782969E-1,8.851437569E-1,-1.893682219E-2
1.865645416E1,1.026253626E-1,5.375614166E-1,1.185078546E-1
1.866648716E1,-2.058615834E-1,8.368854225E-2,4.355469346E-1
1.867644316E1,-5.766568184E-1,-4.605923891E-1,9.352346659E-1
1.868647424E1,-9.468411207E-1,-9.169087410E-1,1.556484699E0
1.869646255E1,-1.273043156E0,-1.288925648E0,2.205223560E0
1.870646255E1,-1.486235142E0,-1.606575608E0,2.805704117E0
1.871645170E1,-1.528384805E0,-1.890017033E0,3.288287640E0
1.872648432E1,-1.409876943E0,-2.182621479E0,3.594331026E0
1.873644070E1,-1.197906733E0,-2.497828007E0,3.769649506E0
1.874647332E1,-1.007927656E0,-2.871677399E0,3.955352545E0
1.875646032E1,-1.063516378E0,-3.301115751E0,4.392732143E0
1.876646224E1,-1.388496757E0,-3.652974129E0,5.229617596E0
1.877644924E1,-1.853976011E0,-3.530801058E0,6.395759106E0
1.878647978E1,-2.455678225E0,-2.959642172E0,7.535633564E0
1.879646893E1,-3.077539206E0,-2.308459759E0,8.198422432E0
1.880646870E1,-3.504534006E0,-1.835650086E0,8.087244987E0
1.881645762E1,-3.472157955E0,-1.770287514E0,6.493497372E0
1.882648832E1,-3.026837349E0,-1.607186437E0,4.928460598E0
1.883644678E1,-2.593122959E0,-1.258382440E0,3.567453146E0
1.884647939E1,-2.407419920E0,-1.053131700E0,2.796540976E0
1.885646647E1,-2.417193890E0,-9.932668805E-1,2.519819021E0
1.886646839E1,-2.479501963E0,-9.682214260E-1,2.379930973E0
1.887645539E1,-2.438574076E0,-1.006705880E0,2.207056046E0
1.888648778E1,-2.194838762E0,-1.065959811E0,1.964542627E0
1.889644432E1,-1.780061364E0,-1.119105101E0,1.704924941E0
1.890647670E1,-1.312138557E0,-1.183246017E0,1.487456918E0
1.891646401E1,-9.095783234E-1,-1.222952247E0,1.316414595E0
1.892646378E1,-6.444628239E-1,-1.207680583E0,1.169196129E0
1.893645293E1,-5.393940210E-1,-1.127657294E0,1.042136073E0
1.894648316E1,-5.717698932E-1,-9.889908433E-1,9.340129495E-1
1.895644193E1,-7.024950385E-1,-7.538077235E-1,8.063421249E-1
1.896647239E1,-8.991936445E-1,-4.764748812E-1,6.536257863E-1
1.897646132E1,-1.106887817E0,-2.003637999E-1,4.685336351E-1
1.898646162E1,-1.256549835E0,2.809980139E-2,2.315179259E-1
1.899645047E1,-1.304197311E0,1.954768747E-1,-4.886921868E-2
1.900648070E1,-1.275486588E0,3.219259977E-1,-3.402519524E-1
1.901643947E1,-1.216843605E0,3.903428912E-1,-5.949827433E-1
1.902646986E1,-1.142928839E0,3.952298164E-1,-8.246681094E-1
1.903645909E1,-1.043357849E0,4.263839424E-1,-1.077566266E0
1.904648993E1,-9.236282706E-1,5.656611919E-1,-1.412320495E0
1.905644801E1,-7.715228200E-1,8.026769161E-1,-1.833206654E0
1.906648124E1,-5.448917747E-1,1.087340117E0,-2.282192469E0
1.907646747E1,-2.431243658E-1,1.399492264E0,-2.750726223E0
1.908647024E1,1.215621829E-1,1.718974829E0,-3.155118942E0
1.909645662E1,5.045747161E-1,2.033570290E0,-3.415347576E0
1.910648924E1,1.113607287E0,2.417193890E0,-3.687182665E0
1.911644555E1,1.589471340E0,2.527149439E0,-3.782477617E0
1.912647601E1,2.087937355E0,2.579684019E0,-3.787364483E0
1.913646501E1,2.572353601E0,2.505769253E0,-3.745214701E0
1.914646501E1,3.169779778E0,2.298074961E0,-3.563176870E0
1.915645416E1,4.036597729E0,1.834428310E0,-3.366478443E0
1.916648655E1,4.916854382E0,1.263269305E0,-3.779423237E0
1.917644309E1,5.324301243E0,6.230825782E-1,-4.809341908E0
1.918647570E1,4.973664761E0,1.576032341E-1,-5.818491459E0
1.919646278E1,3.965737104E0,7.147123665E-2,-6.269920826E0
1.920646470E1,2.818532228E0,5.998696685E-1,-6.232047081E0
1.921645170E1,1.819767594E0,1.508837104E0,-6.095213413E0
1.922648432E1,1.034805775E0,2.298686028E0,-5.952881813E0
1.923644070E1,4.740314186E-1,2.643213987E0,-5.782450199E0
1.924647116E1,1.618792862E-1,2.680476665E0,-5.530774117E0
1.925646032E1,8.307767659E-2,2.591901302E0,-5.141652584E0
1.926646032E1,1.808161139E-1,2.454456568E0,-4.590041637E0
1.927644932E1,4.019493461E-1,2.178956270E0,-3.918089628E0
1.928647978E1,7.086036801E-1,1.796554685E0,-3.241861820E0
1.929646870E1,1.009760261E0,1.491732955E0,-2.698802710E0
1.930647086E1,1.211345792E0,1.220508814E0,-2.331061840E0
1.931645786E1,1.313360333E0,9.608910084E-1,-2.014633656E0
1.932648832E1,1.359175205E0,8.161159754E-1,-1.670105577E0
1.933644686E1,1.338405728E0,8.020660877E-1,-1.335351467E0
1.934647732E1,1.255328059E0,8.399397135E-1,-1.068403363E0
1.935646647E1,1.133765936E0,9.156870246E-1,-8.680394888E-1
1.936649855E1,9.828822017E-1,1.015258074E0,-7.226535678E-1
1.937645539E1,7.544185519E-1,1.048855662E0,-6.462954283E-1
1.938648770E1,2.131919712E-1,7.898487449E-1,-5.601634383E-1
1.939644439E1,-2.620611787E-1,3.732386529E-1,-4.159992337E-1
1.940647701E1,-7.519751191E-1,-1.728748679E-1,-1.001819000E-1
1.941646401E1,-1.144150615E0,-7.800748944E-1,5.320636034E-1
1.942646370E1,-1.327410221E0,-1.368949056E0,1.498452425E0
1.943645293E1,-1.270599723E0,-1.892460585E0,2.631607533E0
1.944648247E1,-1.042136073E0,-2.265088320E0,3.663358927E0
1.945644132E1,-7.611380816E-1,-2.580294847E0,4.384790897E0
1.946647393E1,-5.705481172E-1,-2.904664278E0,4.750699043E0
1.947646093E1,-5.235115290E-1,-3.302948475E0,4.894863129E0
1.948646309E1,-5.949827433E-1,-3.634648323E0,4.965112686E0
1.949644993E1,-7.128797174E-1,-3.847229242E0,5.114774704E0
1.950648255E1,-8.246681094E-1,-3.973678350E0,5.619349480E0
1.951643909E1,-8.741481900E-1,-4.090353489E0,6.624222755E0
1.952646932E1,-7.843509912E-1,-4.125783920E0,7.866111755E0
1.953645847E1,-5.002986193E-1,-3.944356918E0,8.962003708E0
1.954648955E1,-8.429940045E-2,-3.585168123E0,9.453750610E0
1.955644801E1,3.433062732E-1,-3.127629995E0,9.017592430E0
1.956647847E1,6.811147332E-1,-2.714074373E0,7.904596329E0
1.957646770E1,8.613200188E-1,-2.355496407E0,6.626055241E0
1.958646963E1,8.155050874E-1,-1.982868552E0,5.679824829E0
1.959645663E1,4.917465150E-1,-1.466076612E0,5.202739239E0
1.960648924E1,-6.536258012E-2,-8.527678847E-1,4.993823528E0
1.961644555E1,-6.927211881E-1,-2.706133127E-1,4.809952736E0
1.962647816E1,-1.252273798E0,1.404990107E-1,4.543004990E0
1.963646524E1,-1.662775159E0,3.390302062E-1,4.210083485E0
1.964646709E1,-1.926669002E0,3.885102868E-1,3.865555286E0
1.965645416E1,-2.070833206E0,3.439171314E-1,3.532022953E0
1.966648678E1,-2.095267773E0,2.785545588E-1,3.178331852E0
1.967644309E1,-2.043955088E0,2.296853364E-1,2.850297213E0
1.968647570E1,-1.809993744E0,1.093448773E-1,2.633440018E0
1.969646278E1,-1.613906026E0,7.757988572E-2,2.447126150E0
1.970646470E1,-1.512502313E0,1.099557430E-1,2.051896334E0
1.971645170E1,-1.491732955E0,2.064724565E-1,1.579086661E0
1.972648216E1,-1.524108768E0,3.530801237E-1,1.140485406E0
1.973644070E1,-1.605964780E0,4.813618064E-1,7.177666426E-1
1.974647109E1,-1.700037956E0,6.206390858E-1,2.956587672E-1
1.975646032E1,-1.753794074E0,7.751879692E-1,-1.178969890E-1
1.976646063E1,-1.726916075E0,9.511171579E-1,-5.167919993E-1
1.977644924E1,-1.596801758E0,1.130711555E0,-9.126327038E-1
1.978648009E1,-1.364672899E0,1.246165156E0,-1.336573124E0
1.979646870E1,-1.014036298E0,1.318247199E0,-1.789835215E0
1.980646955E1,-5.552765131E-1,1.354288220E0,-2.246762276E0
1.981645786E1,-1.954768784E-2,1.362229466E0,-2.691472292E0
1.982649086E1,5.687155724E-1,1.416596532E0,-3.083036900E0
1.983644686E1,1.155757070E0,1.558317184E0,-3.426343203E0
1.984647724E1,1.674992561E0,1.814880610E0,-3.779423237E0
1.985646624E1,2.103209019E0,2.050063848E0,-4.168544292E0
1.986646832E1,2.441628456E0,2.205834389E0,-4.589430809E0
1.987645547E1,2.693304777E0,2.207056046E0,-4.896084785E0
1.988648778E1,2.944370508E0,2.036013842E0,-5.017036438E0
1.989644432E1,3.351206779E0,1.835650086E0,-4.975497246E0
1.990647693E1,3.957185030E0,1.509448051E0,-4.831943989E0
1.991646401E1,4.689612389E0,8.338310719E-1,-4.860654831E0
1.992646586E1,5.348736286E0,2.076941915E-2,-5.536271572E0
1.993645293E1,5.569869518E0,-5.442809463E-1,-6.481280327E0
1.994648555E1,5.068348885E0,-6.780604124E-1,-6.938207626E0
1.995644193E1,4.086688519E0,-2.950479090E-1,-6.836803913E0
1.996647240E1,2.336559534E0,7.330383062E-1,-6.470895767E0
1.997646155E1,1.233947754E0,1.167363524E0,-6.172793388E0
1.998646347E1,2.748893499E-1,1.373225093E0,-5.837428093E0
1.999645055E1,-4.294382632E-1,1.470352650E0,-5.380501270E0
2.000648093E1,-8.558222055E-1,1.609019041E0,-4.821559429E0
2.001643940E1,-1.078177214E0,1.784948230E0,-4.319427967E0
2.002646993E1,-1.134376764E0,1.943773150E0,-3.944356918E0
2.003645909E1,-1.031140566E0,2.027461767E0,-3.620598316E0
2.004649147E1,-8.100073338E-1,2.005470514E0,-3.258965969E0
2.005644809E1,-5.271766782E-1,1.875967145E0,-2.884505749E0
2.006647855E1,-2.302961946E-1,1.678657651E0,-2.495995283E0
2.007646747E1,6.780604273E-2,1.477683067E0,-2.070222378E0
2.008646747E1,3.420845270E-1,1.375668526E0,-1.671327353E0
2.009645640E1,5.601634383E-1,1.403157473E0,-1.363451242E0
2.010648678E1,6.933320761E-1,1.478904724E0,-1.149037480E0
2.011644563E1,7.079927921E-1,1.502117634E0,-9.865473509E-1
2.012647578E1,5.668829679E-1,1.423316002E0,-8.533787727E-1
2.013646501E1,2.590068579E-1,1.251052022E0,-7.476990819E-1
2.014646778E1,-2.034181207E-1,9.914342761E-1,-6.029239893E-1
2.015645416E1,-7.373143435E-1,6.469063163E-1,-3.097086847E-1
2.016648440E1,-1.228450060E0,2.467895597E-1,1.514945775E-1
2.017644309E1,-1.588860512E0,-1.521054506E-1,7.574729323E-1
2.018647416E1,-1.753794074E0,-5.809328556E-1,1.454470158E0
2.019646278E1,-1.698816299E0,-9.999864101E-1,2.053729057E0
2.020646255E1,-1.478904724E0,-1.404990077E0,2.381763697E0
2.021645170E1,-1.194241524E0,-1.768454909E0,2.455067396E0
2.022648409E1,-8.930850029E-1,-2.119091511E0,2.482556343E0
2.023644070E1,-6.004805565E-1,-2.479501963E0,2.703078747E0
2.024647117E1,-3.707951903E-1,-2.972470284E0,3.384193420E0
2.025646032E1,-4.312708676E-1,-3.626707077E0,5.461135387E0
2.026646132E1,-9.443976879E-1,-3.616933107E0,7.117190838E0
2.027644932E1,-1.798387289E0,-3.200933933E0,8.659014702E0
2.028647978E1,-2.796540976E0,-2.678644180E0,9.787282944E0
2.029646894E1,-3.700010777E0,-2.460565090E0,1.008355236E1
2.030646870E1,-4.201530933E0,-2.392148256E0,9.087841988E0
2.031645786E1,-4.131281853E0,-2.252260208E0,7.026782990E0
2.032649047E1,-3.693291187E0,-2.186897516E0,5.031085968E0
2.033644678E1,-3.100141048E0,-2.237599373E0,3.757432222E0
2.034647947E1,-2.539977789E0,-2.333505154E0,3.080593348E0
2.035646647E1,-2.077552795E0,-2.355496407E0,2.706743956E0
2.036646863E1,-1.683544636E0,-2.293188095E0,2.411085129E0
2.037645540E1,-1.302364707E0,-2.182621479E0,2.162462950E0
2.038648563E1,-9.046914577E-1,-2.039679050E0,1.984090328E0
2.039644440E1,-4.819726646E-1,-1.870469332E0,1.890017033E0
2.040647486E1,-8.979719132E-2,-1.685377240E0,1.854586840E0
2.041646401E1,1.875356287E-1,-1.530217409E0,1.836871743E0
2.042646440E1,3.475823104E-1,-1.428813815E0,1.829541445E0
2.043645301E1,3.958406746E-1,-1.339016676E0,1.805717707E0
2.044648286E1,3.225368559E-1,-1.242499948E0,1.741576791E0
2.045644132E1,1.667662114E-1,-1.110553026E0,1.647503614E0
2.046647232E1,-2.138028294E-2,-9.395107627E-1,1.549154282E0
2.047646101E1,-1.997529417E-1,-7.684684992E-1,1.457524419E0
2.048646094E1,-3.408628106E-1,-6.035348773E-1,1.368338108E0
2.049685362E1,-4.404338300E-1,-4.660901725E-1,1.233336926E0
2.050688415E1,-5.033529401E-1,-3.817907870E-1,1.044579625E0
2.051684285E1,-5.418374538E-1,-2.962696552E-1,8.142833710E-1
