"Time (s)","Acceleration x (m/s^2)","Acceleration y (m/s^2)","Acceleration z (m/s^2)"
2.188207700E-2,-4.386177540E0,3.648763418E0,7.208941460E0
3.244184600E-2,-4.414907932E0,3.672705412E0,7.134721279E0
4.245169200E-2,-4.429273129E0,3.706224203E0,7.192182064E0
5.246146100E-2,-4.331110954E0,3.675099611E0,7.268796444E0
6.244061500E-2,-4.256890774E0,3.646369219E0,7.383718014E0
7.245046100E-2,-4.163516521E0,3.586514235E0,7.623138428E0
8.246023100E-2,-4.007893562E0,3.526659012E0,7.886500359E0
9.243938500E-2,-3.869029999E0,3.459621429E0,8.173804283E0
1.024492310E-1,-3.768473387E0,3.418920040E0,8.470685959E0
1.124590000E-1,-3.804386616E0,3.454833031E0,8.722076416E0
1.224381540E-1,-3.897760391E0,3.517082214E0,8.911218643E0
1.324480000E-1,-4.070142746E0,3.531447411E0,8.966285706E0
1.424577690E-1,-4.276044369E0,3.663128614E0,9.042900085E0
1.524371540E-1,-4.189853191E0,3.679888010E0,8.983044624E0
1.624467690E-1,-3.938461781E0,3.562572241E0,8.710105896E0
1.724566150E-1,-3.773261786E0,3.318363667E0,8.355764389E0
1.824359230E-1,-3.739742994E0,3.141192675E0,8.176198959E0
1.924455390E-1,-3.744531393E0,3.043030262E0,7.953537941E0
2.024553850E-1,-3.715801001E0,3.033453465E0,7.920019150E0
2.124346920E-1,-3.624821424E0,3.055001259E0,8.066065788E0
2.224443080E-1,-3.579331636E0,3.057395458E0,8.355764389E0
2.324541540E-1,-3.541024208E0,3.062183857E0,8.619126320E0
2.424332310E-1,-3.620033026E0,3.083731890E0,9.030928612E0
2.524430770E-1,-3.512293816E0,3.126827478E0,9.306262016E0
2.624529230E-1,-3.347094059E0,3.203441858E0,9.490615845E0
2.724626930E-1,-2.980781078E0,3.339911461E0,9.943120003E0
2.824418460E-1,-2.466027737E0,3.280056238E0,9.627084732E0
2.924516930E-1,-2.367865562E0,2.944868088E0,9.229647636E0
3.024614620E-1,-2.482787132E0,2.765302896E0,9.064447403E0
3.124406160E-1,-2.494758129E0,2.703053713E0,8.894459724E0
3.224504620E-1,-2.463633537E0,2.681505919E0,8.571242332E0
3.324602310E-1,-2.193088770E0,2.932897091E0,8.643068314E0
3.424393850E-1,-2.080561161E0,3.019088268E0,8.920795441E0
3.524492310E-1,-2.233790159E0,2.959233284E0,9.265560150E0
3.624590010E-1,-2.777273893E0,2.741360903E0,9.119514465E0
3.724381540E-1,-3.213018656E0,2.398990154E0,9.071630478E0
3.824480010E-1,-3.452438831E0,1.936909199E0,8.753201485E0
3.924577700E-1,-3.347094059E0,1.728613615E0,9.222464561E0
4.024371540E-1,-3.165134668E0,1.668758631E0,9.998186111E0
4.124467700E-1,-2.868253708E0,1.666364431E0,1.059913063E1
4.224566160E-1,-2.437297344E0,1.762132406E0,1.077390766E1
4.324359240E-1,-9.792284966E-1,2.284068346E0,1.081939793E1
4.424455390E-1,-2.382230759E0,1.553836942E0,1.030943298E1
4.524553850E-1,-3.672705412E0,1.142034173E0,9.832986832E0
4.624346930E-1,-3.394978046E0,7.517793179E-1,9.016563416E0
4.724443080E-1,-3.260902643E0,6.392518282E-1,8.935160637E0
4.824541550E-1,-2.695871115E0,9.624691010E-1,9.636661530E0
4.924332320E-1,-2.176329374E0,1.192312479E0,9.758766174E0
5.024430780E-1,-1.620874524E0,1.264138460E0,9.708487511E0
5.124529240E-1,-9.983820915E-1,1.297657371E0,9.251194954E0
5.224626930E-1,-4.548983276E-1,1.347935557E0,8.856152534E0
5.324418470E-1,2.609679997E-1,1.436521053E0,9.035717010E0
5.424516930E-1,9.457096457E-1,1.594538331E0,9.136273384E0
5.524614630E-1,1.917755604E0,2.070984364E0,9.919178009E0
5.624406160E-1,2.916137695E0,2.636016130E0,1.161906052E1
5.724504630E-1,3.390189648E0,2.200271368E0,1.285207462E1
5.824602320E-1,2.303221941E0,-4.955997467E-1,6.773196697E0
5.924393860E-1,1.999158382E0,-1.520318031E0,1.534683347E0
6.024492320E-1,2.549824715E0,1.338358760E0,1.333570361E0
6.124590010E-1,4.879383087E0,5.195417881E0,6.078877926E0
6.224381550E-1,5.181052685E0,6.809109688E0,1.048181534E1
6.324480010E-1,-5.458779931E-1,4.065354347E0,9.866505623E0
6.424577700E-1,-4.170699596E0,1.357512355E0,1.032619190E1
6.524371550E-1,-3.986345768E0,5.913678408E-1,1.005325317E1
6.624467700E-1,-3.145981073E0,1.795651317E0,1.100135708E1
6.724566170E-1,-1.805228114E0,2.803610086E0,1.193509579E1
6.824359240E-1,-9.840168953E-1,2.861071110E0,1.144188976E1
6.924455400E-1,-4.070143029E-2,2.580949545E0,1.057997704E1
7.024553090E-1,-2.245761156E0,1.623268723E0,9.708487511E0
7.124344630E-1,-6.847416878E0,1.340752959E0,8.614337921E0
7.224443090E-1,-5.154716492E0,2.746149302E0,7.383718014E0
7.324541550E-1,-4.678270340E0,3.617638826E0,6.849811077E0
7.424332320E-1,-4.220977783E0,3.806780815E0,6.588842869E0
7.524430780E-1,-3.308786631E0,3.847482204E0,6.428431511E0
7.624529250E-1,-2.339135170E0,3.715801001E0,6.066906929E0
7.724626940E-1,-1.041477680E0,3.837905407E0,5.415684223E0
7.824418480E-1,-1.963245422E-1,4.268861771E0,5.597643375E0
7.924516940E-1,-3.256114423E-1,4.192247391E0,4.917690277E0
8.024614630E-1,6.488286853E-1,4.876988888E0,6.047753334E0
8.124406170E-1,2.722207308E0,6.155492783E0,7.524975777E0
8.224504630E-1,4.522646904E0,7.472303391E0,8.140285492E0
8.324602320E-1,4.139574528E0,6.900089264E0,7.280767441E0
8.424393860E-1,1.874659896E0,5.255272865E0,6.093243122E0
8.524492320E-1,-1.022324085E0,4.089296341E0,5.413290024E0
8.624590020E-1,-2.387019157E0,3.780444384E0,4.869806290E0
8.724381560E-1,-2.549824715E0,3.924096584E0,4.661510944E0
8.824480020E-1,-2.042253971E0,4.050989151E0,4.541800499E0
8.924577710E-1,-9.217676520E-1,3.770867586E0,4.625597477E0
9.024369250E-1,-2.106897533E-1,3.495534420E0,4.881777287E0
9.124467710E-1,-2.777273953E-1,3.232172251E0,4.630385876E0
9.224566170E-1,-1.134851575E0,2.628833532E0,3.986345768E0
9.324359250E-1,-1.898601890E0,1.831564307E0,3.241749048E0
9.424455400E-1,-1.860294700E0,1.039083481E0,2.693476915E0
9.524553870E-1,-1.383848548E0,6.991068721E-1,2.645592928E0
9.624346940E-1,-1.544260144E0,4.285621047E-1,2.578555346E0
9.724443100E-1,-2.334346771E0,2.202665508E-1,2.197877169E0
9.824541560E-1,-3.306392431E0,-7.661445439E-2,1.513135433E0
9.924332330E-1,-4.228160381E0,-4.405331016E-1,6.416460276E-1
1.002443079E0,-5.181052685E0,-8.092401624E-1,-2.106897533E-1
1.012452925E0,-8.274360657E0,-7.350199223E-1,-8.307880163E-1
1.022462694E0,-7.400477409E0,-2.090138197E0,-1.556231081E-1
1.032441848E0,-9.507374763E0,-2.545036316E0,-9.121908545E-1
1.042451694E0,-1.046266174E1,-2.114080191E0,-2.202665508E-1
1.052461464E0,-1.053688145E1,-2.176329374E0,9.576806426E-2
1.062440618E0,-1.105402946E1,-2.743755102E0,-6.440402865E-1
1.072450464E0,-1.067813969E1,-3.859453201E0,-8.283938169E-1
1.082460233E0,-9.373299599E0,-5.619191170E0,-1.127668977E0
1.092439387E0,-1.022324085E1,-6.272808552E0,-1.704671621E0
1.102449233E0,-1.185369301E1,-6.399701118E0,-1.414973259E0
1.112459002E0,-1.309388924E1,-6.739677906E0,-1.814804912E0
1.122438156E0,-1.343386555E1,-7.261613846E0,-2.422932148E0
1.132448002E0,-1.312980175E1,-7.618350029E0,-2.935291290E0
1.142457772E0,-1.310585976E1,-7.754819393E0,-3.205836058E0
1.152437156E0,-1.328781986E1,-7.852981567E0,-3.371036053E0
1.162446772E0,-1.371159267E1,-7.908048153E0,-3.687070608E0
1.172456618E0,-1.450886250E1,-7.721300602E0,-3.916913986E0
1.182435926E0,-1.549287891E1,-7.429207802E0,-3.775655985E0
1.192445541E0,-1.604354477E1,-7.350199223E0,-3.651157618E0
1.202455387E0,-1.610818863E1,-6.816292286E0,-3.423708439E0
1.212434695E0,-1.637873459E1,-5.995080948E0,-3.428496838E0
1.222444310E0,-1.670913315E1,-5.236119270E0,-3.665522814E0
1.232454156E0,-1.677377701E1,-4.853046894E0,-4.031835556E0
1.242433233E0,-1.652956772E1,-4.769249916E0,-4.225766182E0
1.252443080E0,-1.605551720E1,-4.800374508E0,-4.280832767E0
1.262452926E0,-1.528697777E1,-4.702212334E0,-4.125209332E0
1.272462695E0,-1.432211494E1,-4.592078686E0,-3.861847401E0
1.282441849E0,-1.336443424E1,-4.580107689E0,-3.459621429E0
1.292451695E0,-1.247857952E1,-4.702212334E0,-2.961627483E0
1.302461464E0,-1.137245846E1,-4.965574265E0,-2.650381327E0
1.312440618E0,-1.049618053E1,-5.023035049E0,-2.549824715E0
1.322450464E0,-9.837775230E0,-4.996698856E0,-2.394201756E0
1.332460234E0,-9.409213066E0,-5.094861031E0,-2.384624958E0
1.342439387E0,-9.143456459E0,-5.264849663E0,-2.449268341E0
1.352449234E0,-9.131484985E0,-5.521028996E0,-2.535459518E0
1.362459003E0,-9.404424667E0,-5.829881191E0,-2.616862535E0
1.372438157E0,-9.739612579E0,-6.081272125E0,-2.578555346E0
1.382448003E0,-9.955090523E0,-6.121973515E0,-2.671929121E0
1.392457772E0,-1.011310768E1,-6.078877926E0,-2.724601507E0
1.402437157E0,-1.028788471E1,-6.028599739E0,-2.650381327E0
1.412487695E0,-1.076433086E1,-6.165069580E0,-2.770091295E0
1.422456618E0,-1.122162342E1,-6.200982571E0,-2.985569477E0
1.432435695E0,-1.131739140E1,-5.748478413E0,-2.901772499E0
1.442445542E0,-1.132936287E1,-4.982333660E0,-2.662352324E0
1.452455388E0,-1.158793640E1,-4.098873138E0,-2.489969730E0
1.462434695E0,-1.203565216E1,-3.452438831E0,-2.705447912E0
1.472444311E0,-1.236126328E1,-2.978386879E0,-3.203441858E0
1.482454080E0,-1.242111874E1,-2.703053713E0,-3.782838583E0
1.492433234E0,-1.226788998E1,-2.616862535E0,-4.048594952E0
1.502443080E0,-1.194706631E1,-2.516305923E0,-3.801992416E0
1.512452926E0,-1.150174522E1,-2.291250944E0,-3.215412855E0
1.522462696E0,-1.137724686E1,-1.929726601E0,-2.576161146E0
1.532441849E0,-1.188002872E1,-1.939303398E0,-2.418143749E0
1.542451696E0,-1.259589481E1,-2.293645144E0,-2.545036316E0
1.552461465E0,-1.303882217E1,-2.832340717E0,-2.829946518E0
1.562440619E0,-1.325430107E1,-3.490746021E0,-3.330334663E0
1.572450465E0,-1.351526833E1,-4.252102375E0,-3.797203779E0
1.582460234E0,-1.370680428E1,-5.085284233E0,-4.086902142E0
1.592439388E0,-1.341710663E1,-5.916072369E0,-4.278438568E0
1.602449234E0,-1.281855583E1,-6.363788128E0,-4.273650169E0
1.612459004E0,-1.201889229E1,-6.485892296E0,-4.058171749E0
1.622438157E0,-1.125274754E1,-6.562506676E0,-3.883395195E0
1.632448004E0,-1.023760605E1,-6.296750546E0,-3.505111217E0
1.642457773E0,-9.457097054E0,-5.913678169E0,-3.179499865E0
1.652437157E0,-8.947132111E0,-5.705382824E0,-2.964021683E0
1.662446773E0,-8.645462036E0,-5.664681435E0,-3.047818661E0
1.672456619E0,-7.584830761E0,-5.777208805E0,-2.655169725E0
1.682435696E0,-6.452373505E0,-5.693411827E0,-2.047042370E0
1.692445542E0,-5.310339451E0,-5.566518784E0,-2.370259762E0
1.702455388E0,-5.556941986E0,-5.346252441E0,-1.563413739E0
1.712434696E0,-4.963180065E0,-5.219359875E0,-1.817199111E0
1.722444311E0,-4.055777550E0,-5.149928093E0,-2.494758129E0
1.732454081E0,-4.125209332E0,-5.645527840E0,-3.100491285E0
1.742433235E0,-3.914519787E0,-5.928043365E0,-2.868253708E0
1.752443081E0,-3.004723072E0,-5.743690014E0,-2.255337954E0
1.762452927E0,-2.176329374E0,-5.724536419E0,-1.297657371E0
1.772462696E0,-1.991975784E0,-5.930437565E0,-1.261744261E0
1.782441850E0,-1.932120800E0,-5.937620163E0,-1.575384736E0
1.792451696E0,-1.474828243E0,-5.949591160E0,-2.161964178E0
1.802461466E0,-1.304839969E0,-6.124367714E0,-2.681505919E0
1.812440619E0,-1.410184860E0,-6.256049156E0,-2.839523315E0
1.822450466E0,-1.455674648E0,-6.234501362E0,-2.952050686E0
1.832460235E0,-2.003946781E0,-6.174646378E0,-3.359065056E0
1.842439389E0,-2.600103140E0,-6.033388138E0,-4.074931145E0
1.852449235E0,-2.985569477E0,-5.820304394E0,-4.884171486E0
1.862459004E0,-3.564966440E0,-5.719748020E0,-5.458779812E0
1.872438158E0,-4.254496574E0,-5.760449409E0,-5.987898350E0
1.882448004E0,-5.044582844E0,-6.035782337E0,-6.538564682E0
1.892457773E0,-5.784391403E0,-6.344634533E0,-7.019799232E0
1.902437158E0,-6.548141479E0,-6.653486729E0,-7.465120792E0
1.912446773E0,-7.290344238E0,-7.139509678E0,-7.809885979E0
1.922456620E0,-8.018181801E0,-7.656657219E0,-8.051700592E0
1.932435927E0,-8.470685959E0,-8.049305916E0,-7.910442352E0
1.942445543E0,-8.609549522E0,-8.257601738E0,-7.551311970E0
1.952455389E0,-9.028534889E0,-8.398859978E0,-6.892906666E0
1.962434697E0,-9.504981041E0,-8.497021675E0,-6.325480938E0
1.972444312E0,-1.007719517E1,-8.609549522E0,-5.786785603E0
1.982454158E0,-1.066856289E1,-8.614337921E0,-5.214571476E0
1.992433235E0,-1.062067890E1,-8.300697327E0,-4.369418144E0
2.002443081E0,-1.000297451E1,-7.678205013E0,-3.145981073E0
2.012452928E0,-9.706093788E0,-7.445967197E0,-2.080561161E0
2.022462697E0,-9.753977776E0,-7.163451672E0,-1.565807939E0
2.032441851E0,-1.029985619E1,-7.005434036E0,-1.537077546E0
2.042451697E0,-1.082897472E1,-7.117961884E0,-1.860294700E0
2.052461466E0,-1.101572227E1,-7.479485989E0,-2.293645144E0
2.062440620E0,-1.061110210E1,-7.891288757E0,-2.322375536E0
2.072450466E0,-9.744400978E0,-8.030152321E0,-2.047042370E0
2.082460235E0,-8.860940933E0,-8.034940720E0,-1.762132406E0
2.092439389E0,-8.360552788E0,-8.271966934E0,-1.702277422E0
2.102449235E0,-8.149862289E0,-8.367734909E0,-1.604115129E0
2.112459005E0,-8.063671112E0,-8.154650688E0,-1.515529633E0
2.122438159E0,-8.137891769E0,-7.553706169E0,-1.491587639E0
2.132448005E0,-8.245630264E0,-6.639121532E0,-1.426944256E0
2.142457774E0,-8.355764389E0,-5.734113216E0,-1.268926859E0
2.152437159E0,-8.295908928E0,-4.929661274E0,-1.098938584E0
2.162446774E0,-8.130708694E0,-4.290409565E0,-8.690952063E-1
2.172456620E0,-7.747636795E0,-3.720589399E0,-7.230489254E-1
2.182435928E0,-7.357381821E0,-3.433285236E0,-8.523358107E-1
2.192445543E0,-7.084442616E0,-3.308786631E0,-1.027112484E0
2.202455313E0,-6.900089264E0,-3.301604033E0,-1.278503656E0
2.212434466E0,-6.785167694E0,-3.359065056E0,-1.505952835E0
2.222444313E0,-6.509834290E0,-3.471592426E0,-1.438915253E0
2.232454159E0,-6.057330132E0,-3.586514235E0,-1.484405041E0
2.242433236E0,-5.808333397E0,-3.801992416E0,-1.687912226E0
2.252443082E0,-5.865794182E0,-4.151545525E0,-1.975216389E0
2.262452851E0,-6.045359135E0,-4.355052948E0,-2.118868589E0
2.272462697E0,-6.279991150E0,-4.493916512E0,-2.209848166E0
2.282441851E0,-6.612784863E0,-4.639962673E0,-2.379836559E0
2.292451697E0,-7.029376030E0,-4.865017891E0,-2.604891539E0
2.302461467E0,-7.316680431E0,-5.056553841E0,-2.662352324E0
2.312440621E0,-7.714118004E0,-5.212177277E0,-2.525882721E0
2.322450467E0,-8.070854187E0,-5.341464043E0,-2.255337954E0
2.332460236E0,-8.221688271E0,-5.422866821E0,-2.006340981E0
2.342439390E0,-8.389283180E0,-5.588066578E0,-1.848323703E0
2.352449236E0,-8.748413086E0,-5.770026207E0,-1.766920805E0
2.362459005E0,-9.169792175E0,-6.145915985E0,-1.668758631E0
2.372438159E0,-9.418789864E0,-6.785167694E0,-1.673547029E0
2.382448005E0,-9.780313492E0,-7.673416615E0,-1.699883223E0
2.392457775E0,-1.013226128E1,-8.461109161E0,-1.960851192E0
2.402437159E0,-1.056800652E1,-9.330204010E0,-2.470816135E0
2.412446775E0,-1.091037750E1,-1.023760605E1,-3.083731890E0
2.422456621E0,-1.103487587E1,-1.101093388E1,-3.557783842E0
2.432435929E0,-1.089601231E1,-1.152089882E1,-3.699041605E0
2.442445544E0,-1.040998936E1,-1.171243477E1,-3.691859007E0
2.452455313E0,-9.476250648E0,-1.144428444E1,-3.339911461E0
2.462434698E0,-7.881711960E0,-1.068532181E1,-2.851494312E0
2.472444313E0,-6.576871872E0,-9.832986832E0,-1.984793186E0
2.482454083E0,-5.228936672E0,-8.360552788E0,-1.039083481E0
2.492433236E0,-4.158728123E0,-6.655880928E0,-1.915361285E-1
2.502443083E0,-3.703830004E0,-5.152322292E0,1.675941199E-1
2.512452929E0,-4.244919777E0,-4.534617901E0,4.788403213E-2
2.522462698E0,-5.123591423E0,-4.788403511E0,-3.758896589E-1
2.532441852E0,-6.253654957E0,-5.686229229E0,-1.288080573E0
2.542451698E0,-7.321468830E0,-6.914454460E0,-2.516305923E0
2.552461467E0,-8.413225174E0,-8.125920296E0,-3.651157618E0
2.562440621E0,-8.987833023E0,-9.045293808E0,-4.350264549E0
2.572450467E0,-8.710105896E0,-9.442731857E0,-4.817133904E0
2.582460237E0,-8.125920296E0,-9.799467087E0,-4.936843872E0
2.592439390E0,-7.041347027E0,-1.016099167E1,-4.778826714E0
2.602449237E0,-5.193023682E0,-1.036449909E1,-4.371812344E0
2.612459006E0,-3.177105665E0,-1.009634876E1,-4.240131378E0
2.622438160E0,-1.455674648E0,-9.368511200E0,-4.146757126E0
2.632448006E0,-3.375824392E-1,-8.439560890E0,-4.027047157E0
2.642457775E0,2.873041928E-1,-7.582436562E0,-3.948038578E0
2.652437160E0,5.339069963E-1,-6.962338448E0,-3.931279182E0
2.662446775E0,3.040636182E-1,-6.466738701E0,-4.031835556E0
2.672456621E0,-1.915361285E-1,-6.212953568E0,-3.993528366E0
2.682435929E0,-6.177040339E-1,-6.052541733E0,-3.960009575E0
2.692445545E0,-7.278373241E-1,-5.870582581E0,-3.715801001E0
2.702455391E0,-1.072602391E0,-5.796362400E0,-3.531447411E0
2.712434698E0,-1.687912226E0,-5.758055210E0,-3.411737442E0
2.722444314E0,-2.188300371E0,-5.738901615E0,-3.320757866E0
2.732454160E0,-2.461239338E0,-5.710171223E0,-3.222595453E0
2.742433237E0,-2.772485495E0,-5.741295815E0,-2.935291290E0
2.752443083E0,-3.229778051E0,-5.822698593E0,-2.533065319E0
2.762452929E0,-3.773261786E0,-5.913678169E0,-2.001552582E0
2.772462699E0,-4.276044369E0,-6.100425720E0,-1.546654344E0
2.782441852E0,-4.915296078E0,-6.428431511E0,-1.118092179E0
2.792451699E0,-5.583278179E0,-6.888118267E0,-9.433154464E-1
2.802461468E0,-6.248866558E0,-7.285555840E0,-8.523358107E-1
2.812440622E0,-6.770802498E0,-7.694964409E0,-8.690952063E-1
2.822450468E0,-7.165845871E0,-8.104372978E0,-9.385270476E-1
2.832460237E0,-7.558494568E0,-8.346187592E0,-1.180341482E0
2.842439391E0,-8.101978302E0,-8.403648376E0,-1.479616642E0
2.852449237E0,-8.772355080E0,-8.401253700E0,-1.889025092E0
2.862459006E0,-9.421183586E0,-8.228871346E0,-2.219424963E0
2.872438160E0,-1.027830791E1,-8.264783859E0,-2.652775526E0
2.882448007E0,-1.120725822E1,-8.331821442E0,-3.095702887E0
2.892457776E0,-1.215296745E1,-8.525752068E0,-3.598485231E0
2.902437160E0,-1.274194145E1,-8.772355080E0,-3.974374771E0
2.912446776E0,-1.317289734E1,-8.944737434E0,-4.295197964E0
2.922456545E0,-1.336682796E1,-8.978256226E0,-4.776432514E0
2.932435699E0,-1.341471195E1,-8.791508675E0,-5.250484467E0
2.942445545E0,-1.327824306E1,-8.286332130E0,-5.480327606E0
2.952455391E0,-1.281616211E1,-7.601590633E0,-5.604825974E0
2.962434699E0,-1.210747814E1,-6.624756336E0,-5.389348030E0
2.972444314E0,-1.139640045E1,-5.755661011E0,-5.046977043E0
2.982454161E0,-1.079306126E1,-5.099649429E0,-4.924872875E0
2.992433238E0,-1.040998936E1,-4.853046894E0,-4.817133904E0
3.002443084E0,-1.020408726E1,-4.884171486E0,-4.601655483E0
3.012452930E0,-9.969455719E0,-4.900930882E0,-4.314351559E0
3.022462699E0,-9.856928825E0,-5.030217648E0,-4.156333923E0
3.032441853E0,-9.842563629E0,-5.295974255E0,-3.993528366E0
3.042451699E0,-9.684545517E0,-5.544970989E0,-3.780444384E0
3.052461468E0,-9.706093788E0,-5.853823185E0,-3.634398222E0
3.062440622E0,-9.744400978E0,-6.313509941E0,-3.596091032E0
3.072450469E0,-9.746794701E0,-6.677428722E0,-3.526659012E0
3.082460238E0,-9.768342972E0,-7.026981831E0,-3.469198227E0
3.092439392E0,-9.727641106E0,-7.230489254E0,-3.373430252E0
3.102449238E0,-9.488221169E0,-7.117961884E0,-3.117250681E0
3.112459007E0,-8.975862503E0,-6.809109688E0,-2.738966703E0
3.122438161E0,-8.370129585E0,-6.433219910E0,-2.612074137E0
3.132448007E0,-7.819462776E0,-5.966350555E0,-2.164358377E0
3.142457776E0,-7.230489254E0,-5.652710438E0,-1.812410712E0
3.152437161E0,-6.550535679E0,-5.475539207E0,-1.496376038E0
3.162446776E0,-5.882553577E0,-5.346252441E0,-1.446097851E0
3.172456623E0,-5.408501625E0,-5.272032261E0,-1.369483352E0
3.182435930E0,-4.905719280E0,-5.260061264E0,-1.340752959E0
3.192445546E0,-4.795586109E0,-5.305551052E0,-1.264138460E0
3.202455315E0,-4.716577530E0,-5.549759388E0,-1.120486379E0
3.212434700E0,-4.266467571E0,-5.892130375E0,-1.007958889E0
3.222444315E0,-3.742137194E0,-5.968744755E0,-5.865794420E-1
3.232454161E0,-3.189076662E0,-5.846640587E0,-8.834604025E-1
3.242433238E0,-3.258508444E0,-6.248866558E0,-1.046266198E0
3.252443084E0,-3.816357613E0,-6.382941723E0,-1.501164436E0
3.262452931E0,-4.096478939E0,-6.768408298E0,-1.580173135E0
3.272462700E0,-4.137180328E0,-6.859387875E0,-1.395819545E0
3.282441854E0,-4.122815132E0,-6.950367451E0,-1.283292055E0
3.292451700E0,-4.414907932E0,-7.117961884E0,-1.115697980E0
3.302461469E0,-4.819528103E0,-7.309497833E0,-1.113303781E0
3.312440623E0,-5.269638062E0,-7.532158375E0,-1.168370485E0
3.322450469E0,-5.901707172E0,-7.805097580E0,-1.142034173E0
3.332460238E0,-6.356605530E0,-8.020575523E0,-9.744400978E-1
3.342439392E0,-6.677428722E0,-8.113949776E0,-7.829039693E-1
3.352449238E0,-7.352593422E0,-8.398859978E0,-7.829039693E-1
3.362459008E0,-7.884106159E0,-8.801085472E0,-1.051054597E0
3.372438162E0,-8.185775757E0,-9.339780807E0,-1.496376038E0
3.382448008E0,-8.204929352E0,-9.909601212E0,-1.893813491E0
3.392457777E0,-7.920019150E0,-1.033816338E1,-2.068590164E0
3.402437162E0,-7.551311970E0,-1.086249352E1,-2.171540976E0
3.412446777E0,-7.036558628E0,-1.112346077E1,-2.099714994E0
3.422456623E0,-6.095637321E0,-1.076193619E1,-1.577778935E0
3.432435931E0,-5.135562420E0,-1.010353088E1,-1.168370485E0
3.442445546E0,-4.608838081E0,-9.904812813E0,-9.481038451E-1
3.452455316E0,-4.041412354E0,-9.943120003E0,-8.307880163E-1
3.462434469E0,-3.268085241E0,-9.940725327E0,-9.504981041E-1
3.472444316E0,-2.489969730E0,-9.737217903E0,-1.053448796E0
3.482454162E0,-2.466027737E0,-9.600749016E0,-1.070208192E0
3.492433239E0,-2.908955097E0,-9.607931137E0,-1.134851575E0
3.502443085E0,-3.629609823E0,-9.497797966E0,-1.240196466E0
3.512452854E0,-4.692635536E0,-9.279925346E0,-1.503558636E0
3.522462700E0,-5.652710438E0,-9.109937668E0,-2.008735180E0
3.532441854E0,-6.445190907E0,-9.114726067E0,-2.782062292E0
3.542451700E0,-7.005434036E0,-9.191340446E0,-3.744531393E0
3.552461470E0,-7.058106422E0,-9.296685219E0,-4.539406300E0
3.562440624E0,-6.706159115E0,-9.418789864E0,-5.054159641E0
3.572450470E0,-6.093243122E0,-9.409213066E0,-5.245696068E0
3.582460239E0,-5.468356609E0,-9.181763649E0,-5.118803024E0
3.592439393E0,-4.857835293E0,-8.700529099E0,-4.716577530E0
3.602449239E0,-4.244919777E0,-8.032546997E0,-4.161122322E0
3.612459008E0,-3.883395195E0,-7.223306656E0,-3.531447411E0
3.622438162E0,-3.897760391E0,-6.540958881E0,-2.873042107E0
3.632448008E0,-4.070142746E0,-5.896918774E0,-2.458845139E0
3.642457778E0,-4.398148537E0,-5.315127850E0,-2.121262789E0
3.652436931E0,-5.032611847E0,-4.982333660E0,-2.126051188E0
3.662446778E0,-5.853823185E0,-4.620809078E0,-2.255337954E0
3.672456624E0,-6.682217121E0,-4.288015366E0,-2.537853718E0
3.682435932E0,-7.374141216E0,-3.998316765E0,-2.949656487E0
3.692445547E0,-7.690176010E0,-3.823540211E0,-3.337517262E0
3.702455316E0,-7.718906403E0,-3.967192173E0,-3.605667830E0
3.712434470E0,-7.627926826E0,-4.237737179E0,-3.914519787E0
3.722444316E0,-7.618350029E0,-4.764461517E0,-4.299986362E0
3.732454162E0,-7.460332394E0,-5.351040840E0,-4.479551315E0
3.742433239E0,-7.429207802E0,-5.959167957E0,-4.558559895E0
3.752443086E0,-7.884106159E0,-6.600813866E0,-4.587290287E0
3.762452932E0,-8.394071579E0,-6.912060261E0,-4.304774761E0
3.772462701E0,-8.880094528E0,-6.880935669E0,-3.928884983E0
3.782441855E0,-9.404424667E0,-6.746860504E0,-3.624821424E0
3.792451701E0,-9.591172218E0,-6.509834290E0,-3.335123062E0
3.802461470E0,-9.849745750E0,-6.373364925E0,-3.213018656E0
3.812440624E0,-1.019451046E1,-6.143521786E0,-3.155557871E0
3.822450470E0,-1.065898609E1,-5.937620163E0,-3.191470861E0
3.832460240E0,-1.104684639E1,-5.736507416E0,-3.244143248E0
3.842439393E0,-1.151611042E1,-5.619191170E0,-3.387795448E0
3.852449240E0,-1.195424938E1,-5.738901615E0,-3.725377798E0
3.862459009E0,-1.225113010E1,-6.045359135E0,-4.127603531E0
3.872438163E0,-1.255279922E1,-6.488286495E0,-4.644751072E0
3.882448009E0,-1.249294472E1,-6.792350292E0,-5.068524837E0
3.892457778E0,-1.231337929E1,-7.139509678E0,-5.602431774E0
3.902437163E0,-1.235647488E1,-7.630321026E0,-6.110002518E0
3.912446778E0,-1.220563984E1,-7.716512203E0,-6.208165169E0
3.922456547E0,-1.162624359E1,-7.472303391E0,-5.882553577E0
3.932435701E0,-1.129105568E1,-7.304709435E0,-5.549759388E0
3.942445548E0,-1.102529907E1,-7.321468830E0,-4.848258495E0
3.952455394E0,-1.088643551E1,-7.560888767E0,-3.809175014E0
3.962434471E0,-1.050815105E1,-7.773972988E0,-2.770091295E0
3.972444317E0,-9.947908401E0,-7.879317760E0,-2.200271368E0
3.982454163E0,-9.380482674E0,-7.931990147E0,-1.951274395E0
3.992433240E0,-9.026140213E0,-7.730877399E0,-1.673547029E0
4.002443086E0,-8.793902397E0,-7.400477409E0,-1.477222443E0
4.012452932E0,-8.834604263E0,-7.331045628E0,-1.357512355E0
4.022462702E0,-9.050082207E0,-7.486668587E0,-1.127668977E0
4.032441855E0,-8.906430244E0,-7.623138428E0,-9.600749016E-1
4.042451702E0,-8.762778282E0,-8.013393402E0,-1.022324085E0
4.052461471E0,-9.052476883E0,-8.966285706E0,-1.546654344E0
4.062440625E0,-9.258378029E0,-9.713275909E0,-1.836352706E0
4.072450471E0,-8.813055992E0,-1.013704967E1,-1.759738207E0
4.082460240E0,-8.073247910E0,-1.014183807E1,-1.491587639E0
4.092439394E0,-7.467514992E0,-9.957485199E0,-1.259350061E0
4.102449240E0,-6.710947514E0,-9.478644371E0,-1.151610970E0
4.112459009E0,-6.062118530E0,-8.784325600E0,-1.144428372E0
4.122438163E0,-5.592854977E0,-7.922413349E0,-1.405396342E0
4.132448010E0,-5.475539207E0,-7.347805023E0,-1.829170108E0
4.142457779E0,-5.231330872E0,-6.787561893E0,-2.054224968E0
4.152437163E0,-5.102043629E0,-6.347028732E0,-2.111685991E0
4.162446779E0,-5.238513470E0,-6.069301128E0,-1.980004787E0
4.172456548E0,-5.094861031E0,-5.712565422E0,-1.860294700E0
4.182435933E0,-5.001487255E0,-5.638344765E0,-1.833958507E0
4.192445548E0,-5.114014626E0,-5.623979568E0,-1.991975784E0
4.202455394E0,-5.461174011E0,-5.580883980E0,-1.984793186E0
4.212434702E0,-5.846640587E0,-5.612008572E0,-1.948880196E0
4.222444317E0,-6.514622688E0,-5.834669590E0,-1.778891921E0
4.232454087E0,-6.871358871E0,-6.088454723E0,-1.513135433E0
4.242433241E0,-7.249642849E0,-6.428431511E0,-1.264138460E0
4.252443087E0,-7.718906403E0,-6.794744492E0,-9.959878922E-1
4.262452933E0,-7.855375767E0,-7.098807812E0,-9.169792533E-1
4.272462702E0,-7.682993412E0,-7.501033783E0,-8.212111592E-1
4.282441856E0,-7.237671852E0,-7.872135162E0,-8.164227605E-1
4.292451702E0,-6.651092529E0,-8.293514252E0,-8.427590132E-1
4.302461471E0,-6.241683960E0,-8.798690796E0,-7.829039693E-1
4.312440625E0,-5.640739441E0,-9.172186852E0,-7.206547260E-1
4.322450472E0,-5.181052685E0,-9.421183586E0,-6.177040339E-1
4.332460241E0,-4.867412090E0,-9.694122314E0,-6.224924326E-1
4.342439395E0,-4.613626480E0,-9.902418137E0,-8.140285611E-1
4.352449241E0,-4.582501888E0,-1.005325317E1,-1.063025594E0
4.362459010E0,-4.735731125E0,-1.031422138E1,-1.230619669E0
4.372438164E0,-4.728548527E0,-1.066616821E1,-1.472434044E0
4.382448010E0,-4.707000732E0,-1.092953110E1,-1.575384736E0
4.392457779E0,-4.481945515E0,-1.111388397E1,-1.436521053E0
4.402437164E0,-3.950432777E0,-1.105881786E1,-1.098938584E0
4.412446779E0,-3.521870613E0,-1.092953110E1,-6.536170840E-1
4.422456549E0,-2.904166698E0,-1.068292809E1,-5.027823523E-2
4.432435703E0,-2.221819162E0,-1.014183807E1,5.650315881E-1
4.442445549E0,-1.668758631E0,-9.528923035E0,1.175553083E0
4.452455395E0,-1.570596337E0,-8.872911453E0,1.826775908E0
4.462434703E0,-2.461239338E0,-8.470685959E0,2.229001760E0
4.472444318E0,-4.084507942E0,-8.358158112E0,2.152387381E0
4.482454164E0,-5.781997204E0,-8.377311707E0,1.716642618E0
4.492433241E0,-7.208941460E0,-8.504204750E0,1.113303781E0
4.502443087E0,-8.769960403E0,-8.623914719E0,4.141969085E-1
4.512452934E0,-1.028549004E1,-8.774748802E0,-5.147533417E-1
4.522462703E0,-1.107557678E1,-8.789113998E0,-1.446097851E0
4.532441857E0,-1.126232433E1,-8.683769226E0,-2.494758129E0
4.542451703E0,-1.065180302E1,-8.461109161E0,-3.639186621E0
4.552461472E0,-9.519346237E0,-8.003816605E0,-4.558559895E0
4.562440626E0,-8.054094315E0,-7.539340973E0,-5.305551052E0
4.572450472E0,-6.845022678E0,-7.060500622E0,-5.635950565E0
4.582460241E0,-5.956773758E0,-6.409277916E0,-5.542576790E0
4.592439395E0,-5.427655220E0,-5.724536419E0,-5.255272865E0
4.602449241E0,-5.267243862E0,-5.142745018E0,-4.893748283E0
4.612459011E0,-5.406107426E0,-4.764461517E0,-4.620809078E0
4.622438165E0,-5.662287235E0,-4.501099110E0,-4.441244125E0
4.632448011E0,-6.167463779E0,-4.266467571E0,-4.240131378E0
4.642457780E0,-6.861782074E0,-4.129997730E0,-4.089296341E0
4.652437165E0,-7.632715225E0,-4.115632534E0,-4.062960148E0
4.662446780E0,-8.271966934E0,-4.225766182E0,-4.050989151E0
4.672456626E0,-8.803479195E0,-4.393360138E0,-4.043806553E0
4.682435703E0,-9.112331390E0,-4.723760128E0,-3.971980572E0
4.692445549E0,-9.184157372E0,-5.166687489E0,-3.806780815E0
4.702455395E0,-9.402029991E0,-5.628767967E0,-3.514688015E0
4.712434703E0,-9.670180321E0,-6.200982571E0,-3.342305660E0
4.722444319E0,-9.485827446E0,-6.545747280E0,-3.148375273E0
4.732454165E0,-9.143456459E0,-6.385335922E0,-2.614468336E0
4.742433242E0,-9.105149269E0,-6.023811340E0,-2.063801765E0
4.752443088E0,-9.545681953E0,-5.657498837E0,-1.582567334E0
4.762452857E0,-1.040759468E1,-5.307945251E0,-1.338358760E0
4.772462703E0,-1.153047562E1,-4.982333660E0,-1.482010841E0
4.782441857E0,-1.218888092E1,-4.711789131E0,-1.635239720E0
4.792451703E0,-1.259589481E1,-4.496310711E0,-1.810016513E0
4.802461473E0,-1.311064816E1,-4.402936935E0,-2.157175779E0
4.812440627E0,-1.354639339E1,-4.407725334E0,-2.655169725E0
4.822450473E0,-1.398453236E1,-4.434061527E0,-3.043030262E0
4.832460242E0,-1.450407410E1,-4.611232281E0,-3.296815634E0
4.842439396E0,-1.502600956E1,-5.011064053E0,-3.459621429E0
4.852449242E0,-1.578018379E1,-5.465962410E0,-3.701435804E0
4.862459011E0,-1.583285618E1,-6.162675381E0,-4.338293552E0
4.872438165E0,-1.594777775E1,-7.026981831E0,-4.793191910E0
4.882448011E0,-1.567962646E1,-7.469909191E0,-4.867412090E0
4.892457781E0,-1.491587639E1,-7.369352818E0,-4.618414879E0
4.902436934E0,-1.427183628E1,-7.398083210E0,-4.019864559E0
4.912446781E0,-1.363018990E1,-7.431602001E0,-3.251325846E0
4.922456627E0,-1.282573891E1,-7.321468830E0,-2.470816135E0
4.932435935E0,-1.239478207E1,-7.230489254E0,-1.944091797E0
4.942445550E0,-1.197100830E1,-7.393294811E0,-1.656787634E0
4.952455396E0,-1.162863731E1,-7.644686222E0,-1.345541358E0
4.962434473E0,-1.120486355E1,-7.951143742E0,-8.954314590E-1
4.972444319E0,-1.079306126E1,-8.276755333E0,-3.663128614E-1
4.982454165E0,-1.044111347E1,-8.480262756E0,1.915361285E-1
4.992433242E0,-1.002691650E1,-8.659827232E0,8.858546019E-1
5.002443089E0,-9.765948296E0,-8.868123055E0,1.316810966E0
5.012452858E0,-9.818621635E0,-9.296685219E0,1.429338455E0
5.022462704E0,-9.969455719E0,-9.809044838E0,1.381454349E0
5.032441858E0,-9.785101891E0,-1.019211674E1,1.405396342E0
5.042451704E0,-9.299078941E0,-1.031661510E1,1.510741234E0
5.052461473E0,-8.547300339E0,-1.003649330E1,1.766920805E0
5.062440627E0,-7.661445618E0,-9.471462250E0,1.982398987E0
5.072450473E0,-7.041347027E0,-8.923190117E0,1.924938202E0
5.082460243E0,-6.306327343E0,-8.413225174E0,1.563413739E0
5.092439396E0,-5.616796970E0,-7.920019150E0,8.044517636E-1
5.102449243E0,-5.269638062E0,-7.726089001E0,-5.027823523E-2
5.112459012E0,-4.757278919E0,-7.395689011E0,-4.836287498E-1
5.122438166E0,-4.371812344E0,-6.979097843E0,-2.537853718E-1
5.132448012E0,-4.304774761E0,-7.108384609E0,2.250549644E-1
5.142457781E0,-3.782838583E0,-6.691793919E0,6.607996821E-1
5.152437166E0,-3.763684988E0,-5.995080948E0,-4.644751251E-1
5.162446781E0,-4.745307922E0,-6.471527100E0,-1.582567334E0
5.172456550E0,-4.153939724E0,-6.136339188E0,-1.637633920E0
5.182435935E0,-4.304774761E0,-5.561730385E0,-2.377442360E0
5.192445551E0,-4.443638325E0,-5.710171223E0,-3.088520288E0
5.202455397E0,-4.469974518E0,-5.753266811E0,-3.679888010E0
5.212434474E0,-4.503493309E0,-5.841852188E0,-3.921702385E0
5.222444320E0,-4.592078686E0,-5.961562157E0,-3.909731388E0
5.232454166E0,-4.821922302E0,-6.153098583E0,-3.670311213E0
5.242433243E0,-4.905719280E0,-6.186617374E0,-3.292027235E0
5.252443089E0,-4.556165695E0,-6.090848923E0,-2.932897091E0
5.262452935E0,-4.247313976E0,-6.009446144E0,-2.583343744E0
5.272462705E0,-4.268861771E0,-6.117185116E0,-2.387019157E0
5.282441858E0,-4.314351559E0,-6.299144745E0,-2.142810583E0
5.292451705E0,-4.496310711E0,-6.593631268E0,-1.912967205E0
5.302461474E0,-5.003881454E0,-7.132327080E0,-1.958456993E0
5.312440628E0,-5.612008572E0,-7.781155586E0,-2.128445387E0
5.322450474E0,-6.172252178E0,-8.319850922E0,-2.171540976E0
5.332460243E0,-6.320692539E0,-8.415618896E0,-2.003946781E0
5.342439397E0,-6.315904140E0,-8.291120529E0,-1.833958507E0
5.352449243E0,-6.531382084E0,-8.743624687E0,-1.965639591E0
5.362459012E0,-6.234501362E0,-9.074024200E0,-1.886630893E0
5.372438166E0,-5.418078423E0,-8.856152534E0,-1.295263171E0
5.382448012E0,-4.675876141E0,-8.346187592E0,-5.578489900E-1
5.392457782E0,-4.252102375E0,-7.874529362E0,8.379705995E-2
5.402436936E0,-4.254496574E0,-7.503427982E0,4.932055473E-1
5.412446782E0,-4.505887508E0,-7.254431248E0,5.291185975E-1
5.422456628E0,-5.018246651E0,-7.275979042E0,1.508347094E-1
5.432435705E0,-6.052541733E0,-7.819462776E0,-8.092401624E-1
5.442852692E0,-6.801927090E0,-8.540117264E0,-1.754949808E0
5.452862538E0,-7.259219646E0,-8.968679428E0,-2.391807556E0
5.462841846E0,-7.556100368E0,-9.131484985E0,-2.774879694E0
5.472851461E0,-7.989450932E0,-9.133879662E0,-3.026270866E0
5.482861231E0,-8.597578049E0,-9.035717010E0,-3.311181068E0
5.492840385E0,-9.421183586E0,-9.002198219E0,-3.450044632E0
5.502850231E0,-1.050575733E1,-9.167398453E0,-3.675099611E0
5.512860077E0,-1.111867237E1,-9.236829758E0,-3.983951569E0
5.522869846E0,-1.164779091E1,-8.939949036E0,-4.254496574E0
5.532849000E0,-1.155202293E1,-8.305485725E0,-4.556165695E0
5.542858846E0,-1.065419769E1,-7.465120792E0,-4.716577530E0
5.552868615E0,-9.196128845E0,-6.708553314E0,-4.781220913E0
5.562847769E0,-7.728483200E0,-5.990292549E0,-4.704606533E0
5.572857615E0,-6.476315498E0,-5.329493046E0,-4.596867085E0
5.582867385E0,-5.781997204E0,-4.802768707E0,-4.501099110E0
5.592846539E0,-5.597643375E0,-4.383783340E0,-4.323928356E0
5.602856385E0,-6.047753334E0,-4.144362926E0,-4.161122322E0
5.612866154E0,-6.617573261E0,-4.022258759E0,-3.912125587E0
5.622845308E0,-7.184999466E0,-3.895366192E0,-3.490746021E0
5.632855154E0,-7.599195957E0,-3.840299606E0,-3.208230257E0
5.642864923E0,-8.942343712E0,-4.019864559E0,-2.825158119E0
5.652844308E0,-8.180987358E0,-4.242525578E0,-2.758120298E0
5.662853923E0,-7.275979042E0,-4.814739704E0,-2.920926094E0
5.672863693E0,-6.991068840E0,-5.609614372E0,-3.203441858E0
5.682842847E0,-7.110779285E0,-6.229712963E0,-2.964021683E0
5.692852693E0,-7.170634270E0,-6.524199486E0,-2.430114746E0
5.702862539E0,-7.149086475E0,-6.440402508E0,-1.860294700E0
5.712841847E0,-7.275979042E0,-6.268020153E0,-1.424550056E0
5.722851462E0,-7.319074631E0,-6.351817131E0,-1.577778935E0
5.732861231E0,-7.199364662E0,-6.241683960E0,-1.656787634E0
5.742840385E0,-7.400477409E0,-6.136339188E0,-1.561019540E0
5.752850231E0,-7.896077156E0,-6.148310184E0,-1.086967587E0
5.762860077E0,-8.590395927E0,-6.081272125E0,-8.427590132E-1
5.772869847E0,-9.421183586E0,-6.066906929E0,-9.911994934E-1
5.782849001E0,-1.021127033E1,-6.023811340E0,-1.424550056E0
5.792858847E0,-1.096304989E1,-5.760449409E0,-2.042253971E0
5.802868616E0,-1.202368069E1,-5.628767967E0,-2.767697096E0
5.812847770E0,-1.324951267E1,-5.413290024E0,-3.337517262E0
5.822857616E0,-1.492784786E1,-5.154716492E0,-3.861847401E0
5.832867385E0,-1.688391113E1,-5.035006046E0,-4.520252705E0
5.842846539E0,-1.867477417E1,-5.190629482E0,-5.284003258E0
5.852856385E0,-1.980483627E1,-5.319916248E0,-5.944802761E0
5.862866155E0,-2.039859772E1,-5.339069843E0,-6.610390663E0
5.872845309E0,-2.008735275E1,-5.197812080E0,-6.648698330E0
5.882855155E0,-1.891419411E1,-5.130774021E0,-6.246472359E0
5.892864924E0,-1.744894218E1,-5.427655220E0,-5.772420406E0
5.902844309E0,-1.554076290E1,-6.119579315E0,-4.991910458E0
5.912853924E0,-1.323993587E1,-6.691793919E0,-4.161122322E0
5.922863770E0,-1.132936287E1,-6.969521046E0,-3.490746021E0
5.932843078E0,-1.046026707E1,-7.256825447E0,-3.215412855E0
5.942852693E0,-1.025436592E1,-7.642292023E0,-2.985569477E0
5.952862463E0,-1.000536919E1,-7.841010571E0,-2.667140722E0
5.962841847E0,-1.000297451E1,-8.039729118E0,-2.600103140E0
5.972851463E0,-1.010353088E1,-8.370129585E0,-2.499546528E0
5.982861309E0,-1.004128170E1,-8.920795441E0,-2.353500366E0
5.992840386E0,-1.001973438E1,-9.658209801E0,-2.384624958E0
6.002850232E0,-9.904812813E0,-1.032379818E1,-2.358288765E0
6.012860078E0,-9.732429504E0,-1.068532181E1,-2.166752577E0
6.022869847E0,-9.378087997E0,-1.061589050E1,-1.912967205E0
6.032849001E0,-9.030928612E0,-1.031182671E1,-1.680729628E0
6.042858847E0,-8.494627953E0,-9.998186111E0,-1.561019540E0
6.052868617E0,-7.218518257E0,-9.507374763E0,-1.182735682E0
6.062847771E0,-5.896918774E0,-8.920795441E0,-1.012747288E0
6.072857617E0,-5.073313236E0,-8.295908928E0,-1.036689281E0
6.082867386E0,-4.278438568E0,-7.651868820E0,-7.757213712E-1
6.092846540E0,-3.746925592E0,-7.187393665E0,-7.685387731E-1
6.102856386E0,-3.545812607E0,-7.015010834E0,-1.101332784E0
6.112866155E0,-2.995146275E0,-6.777985096E0,-1.546654344E0
6.122845309E0,-2.607285738E0,-6.244078159E0,-2.272097349E0
6.132855155E0,-2.794033289E0,-6.181828976E0,-3.459621429E0
6.142864925E0,-3.040636063E0,-6.227318764E0,-4.197035789E0
6.152844078E0,-2.875436306E0,-5.827486992E0,-4.331110954E0
6.162853925E0,-3.026270866E0,-5.659893036E0,-4.357447147E0
6.172863771E0,-3.574543238E0,-5.889736176E0,-4.268861771E0
6.182843078E0,-4.041412354E0,-6.007051945E0,-4.314351559E0
6.192852694E0,-4.417302132E0,-6.133944988E0,-4.484339714E0
6.202862463E0,-5.195417881E0,-6.392518520E0,-4.613626480E0
6.212841848E0,-6.167463779E0,-6.775590897E0,-4.836287498E0
6.222851463E0,-6.258443356E0,-6.967126846E0,-4.592078686E0
6.232861309E0,-5.892130375E0,-7.187393665E0,-3.730166197E0
6.242840386E0,-5.784391403E0,-7.510610580E0,-2.932897091E0
6.252850232E0,-5.705382824E0,-7.984662533E0,-2.444479942E0
6.262860002E0,-5.547365189E0,-8.420407295E0,-2.003946781E0
6.272869848E0,-5.774814606E0,-8.791508675E0,-1.613691926E0
6.282849002E0,-6.337451935E0,-9.253589630E0,-1.280897856E0
6.292858848E0,-6.797138691E0,-9.691728592E0,-1.096544385E0
6.302868617E0,-6.974309444E0,-9.995792389E0,-1.142034173E0
6.312847771E0,-6.770802498E0,-1.020887566E1,-1.496376038E0
6.322857617E0,-5.992686749E0,-1.011310768E1,-1.616086125E0
6.332867387E0,-5.382165432E0,-1.002691650E1,-1.613691926E0
6.342846540E0,-4.972756863E0,-1.006761837E1,-1.491587639E0
6.352856387E0,-4.390965939E0,-1.010353088E1,-1.395819545E0
6.362866156E0,-3.330334663E0,-9.792284966E0,-1.436521053E0
6.372845310E0,-2.142810583E0,-9.234436035E0,-1.513135433E0
6.382855156E0,-1.690306425E0,-8.722076416E0,-1.323993564E0
6.392864925E0,-1.963245392E0,-8.465897560E0,-1.120486379E0
6.402844079E0,-2.904166698E0,-8.494627953E0,-1.316810966E0
6.412853925E0,-4.199429989E0,-8.544905663E0,-1.924938202E0
6.422863771E0,-5.820304394E0,-8.532935143E0,-2.863465309E0
6.432843079E0,-7.414842606E0,-8.573636055E0,-4.062960148E0
6.442852694E0,-8.894459724E0,-8.863334656E0,-5.640739441E0
6.452862541E0,-9.703699112E0,-9.095572472E0,-6.921637058E0
6.462841618E0,-9.627084732E0,-9.167398453E0,-7.718906403E0
6.472851464E0,-8.834604263E0,-9.023746490E0,-8.161833763E0
6.482861310E0,-7.709329605E0,-8.777143478E0,-7.967903137E0
6.492840387E0,-6.560112476E0,-8.456320763E0,-7.402871609E0
6.502850233E0,-5.403713226E0,-7.929595947E0,-6.526593685E0
6.512860079E0,-4.589684486E0,-7.108384609E0,-5.513846397E0
6.522869849E0,-4.331110954E0,-6.373364925E0,-4.862623692E0
6.532849002E0,-4.247313976E0,-5.817910194E0,-4.608838081E0
6.542858849E0,-4.230554581E0,-5.408501625E0,-4.776432514E0
6.552868618E0,-4.738125324E0,-5.121197224E0,-5.080495834E0
6.562847772E0,-5.726930618E0,-4.999093056E0,-5.336675644E0
6.572857618E0,-6.713341713E0,-4.833893299E0,-5.604825974E0
6.582867387E0,-7.685387611E0,-4.716577530E0,-5.853823185E0
6.592846541E0,-8.322244644E0,-4.776432514E0,-6.054935932E0
6.602856387E0,-8.951920509E0,-4.982333660E0,-6.153098583E0
6.612866156E0,-9.227252960E0,-5.243301868E0,-5.990292549E0
6.622845310E0,-9.282320023E0,-5.499481201E0,-5.578489780E0
6.632855156E0,-9.327810287E0,-5.894524574E0,-5.181052685E0
6.642864926E0,-9.174580574E0,-6.311115742E0,-4.860229492E0
6.652844080E0,-8.791508675E0,-6.497863293E0,-4.453215122E0
6.662853926E0,-8.250418663E0,-6.584054470E0,-4.022258759E0
6.672863695E0,-8.058882713E0,-6.667851925E0,-3.730166197E0
6.682843080E0,-8.243236542E0,-6.775590897E0,-3.699041605E0
6.692852695E0,-8.750806808E0,-6.864176273E0,-3.672705412E0
6.702862541E0,-9.466673851E0,-6.919242859E0,-3.648763418E0
6.712841618E0,-1.008437729E1,-6.890512466E0,-3.550601006E0
6.722851464E0,-1.043632507E1,-6.667851925E0,-3.399766445E0
6.732861234E0,-1.113782597E1,-6.246472359E0,-3.275267839E0
6.742840388E0,-1.195424938E1,-5.937620163E0,-3.325546265E0
6.752850234E0,-1.280658531E1,-5.688623428E0,-3.600879431E0
6.762860080E0,-1.355118179E1,-5.554547787E0,-3.962403774E0
6.772869849E0,-1.395101357E1,-5.087678432E0,-4.390965939E0
6.782849003E0,-1.473152351E1,-4.635174274E0,-5.049371243E0
6.792858849E0,-1.555512810E1,-4.484339714E0,-5.762843609E0
6.802868618E0,-1.583524990E1,-4.067748547E0,-6.421248913E0
6.812847772E0,-1.564371395E1,-3.552995205E0,-6.936002254E0
6.822857618E0,-1.530373764E1,-3.224989653E0,-7.350199223E0
6.832867388E0,-1.481292629E1,-3.337517262E0,-7.649474621E0
6.842846542E0,-1.403481007E1,-3.581725836E0,-7.469909191E0
6.852856388E0,-1.307234097E1,-3.842693806E0,-6.868964672E0
6.862866157E0,-1.240914726E1,-4.113238335E0,-6.215347767E0
6.872845311E0,-1.231816769E1,-4.474762917E0,-5.422866821E0
6.882855157E0,-1.246660805E1,-4.807557106E0,-4.967968464E0
6.892864926E0,-1.264377880E1,-5.130774021E0,-4.704606533E0
6.902844311E0,-1.291432381E1,-5.480327606E0,-4.695029736E0
6.912853926E0,-1.307473564E1,-6.083666325E0,-4.577713490E0
6.922863696E0,-1.257913589E1,-6.643909931E0,-3.979163170E0
6.932842850E0,-1.242590714E1,-7.223306656E0,-3.471592426E0
6.942852696E0,-1.278743172E1,-8.281543732E0,-3.189076662E0
6.952862542E0,-1.277067184E1,-9.102754593E0,-2.992752075E0
6.962841850E0,-1.261265469E1,-9.636661530E0,-2.643198729E0
6.972851465E0,-1.216015053E1,-9.756371498E0,-2.308010340E0
6.982861234E0,-1.148738003E1,-9.591172218E0,-1.941697598E0
6.992840388E0,-1.080982113E1,-9.380482674E0,-1.651999116E0
7.002850234E0,-1.011071396E1,-9.109937668E0,-1.532289028E0
7.012860004E0,-9.708487511E0,-8.851364136E0,-1.556231141E0
7.022869850E0,-9.220070839E0,-8.623914719E0,-1.592144132E0
7.032849004E0,-8.899248123E0,-8.549694061E0,-1.661576033E0
7.042858850E0,-8.552088737E0,-8.681375504E0,-1.788468719E0
7.052868619E0,-8.176198959E0,-9.045293808E0,-1.764526606E0
7.062847773E0,-7.400477409E0,-9.193734169E0,-1.438915253E0
7.072857619E0,-6.629544735E0,-9.246406555E0,-1.060631394E0
7.082867388E0,-6.143521786E0,-9.409213066E0,-9.481038451E-1
7.092846542E0,-5.705382824E0,-9.595960617E0,-7.541735172E-1
7.102856388E0,-5.159504890E0,-9.545681953E0,-5.386953950E-1
7.112866158E0,-4.606443882E0,-9.366117477E0,-4.141969085E-1
7.122845311E0,-3.950432777E0,-9.148244858E0,-5.865794420E-1
7.132855158E0,-3.337517262E0,-8.949525833E0,-1.302445769E0
7.142864927E0,-2.928108692E0,-8.705317497E0,-2.118868589E0
7.152844312E0,-2.521094322E0,-8.439560890E0,-2.494758129E0
7.162853927E0,-2.037465572E0,-8.027758598E0,-2.978386879E0
7.172863696E0,-1.757344007E0,-7.675810814E0,-3.610456228E0
7.182842850E0,-1.628057122E0,-7.388506413E0,-4.405331135E0
7.192852696E0,-1.513135433E0,-7.122750282E0,-5.001487255E0
7.202862466E0,-2.097320795E0,-7.331045628E0,-5.403713226E0
7.212841850E0,-2.600103140E0,-7.386112213E0,-5.755661011E0
7.222851466E0,-3.423708439E0,-7.694964409E0,-6.131550789E0
7.232861312E0,-4.113238335E0,-8.022970200E0,-6.112396717E0
7.242840389E0,-4.671087742E0,-8.360552788E0,-5.724536419E0
7.252850235E0,-5.020640850E0,-8.808267593E0,-5.197812080E0
7.262860004E0,-4.953603268E0,-9.121908188E0,-4.532223701E0
7.272869850E0,-4.874594688E0,-9.433155060E0,-3.797203779E0
7.282849004E0,-4.582501888E0,-9.550470352E0,-3.050212860E0
7.292858850E0,-4.024652958E0,-9.200917244E0,-2.422932148E0
7.302868620E0,-3.835511208E0,-8.688557625E0,-1.647210717E0
7.312847773E0,-3.794809580E0,-8.403648376E0,-1.144428372E0
7.322857620E0,-3.756502390E0,-8.408436775E0,-8.643068075E-1
7.332867389E0,-3.730166197E0,-8.475474358E0,-9.026140571E-1
7.342846543E0,-3.928884983E0,-8.638279915E0,-1.175553083E0
7.352856389E0,-4.465186119E0,-8.930372238E0,-1.553836942E0
7.362866158E0,-5.111620426E0,-9.141061783E0,-1.800439715E0
7.372845312E0,-5.918466568E0,-9.200917244E0,-1.900996208E0
7.382855158E0,-6.631938934E0,-8.999804497E0,-2.305616140E0
7.392864928E0,-7.175422668E0,-8.827422142E0,-2.880224705E0
7.402844312E0,-7.711723804E0,-8.736441612E0,-3.708618402E0
7.412853928E0,-8.264783859E0,-8.817844391E0,-4.582501888E0
7.422863774E0,-8.664615631E0,-8.937555313E0,-5.363011837E0
7.432843081E0,-8.640673637E0,-8.937555313E0,-6.011840343E0
7.442852697E0,-8.214506149E0,-8.781931877E0,-6.392518520E0
7.452862466E0,-7.594407558E0,-8.350975990E0,-6.418854713E0
7.462841620E0,-7.019799232E0,-7.843404770E0,-6.272808552E0
7.472851466E0,-6.536170483E0,-7.295132637E0,-5.786785603E0
7.482861312E0,-6.100425720E0,-6.828263283E0,-5.212177277E0
7.492840389E0,-5.911283970E0,-6.342240334E0,-4.778826714E0
7.502850235E0,-5.930437565E0,-5.892130375E0,-4.546588898E0
7.512860005E0,-6.078877926E0,-5.549759388E0,-4.455609322E0
7.522869851E0,-6.275202751E0,-5.190629482E0,-4.450820923E0
7.532849005E0,-6.461950302E0,-5.018246651E0,-4.611232281E0
7.542858851E0,-6.979097843E0,-5.075707436E0,-4.728548527E0
7.552868620E0,-7.491456985E0,-5.137956619E0,-4.599261284E0
7.562847774E0,-7.747636795E0,-5.236119270E0,-4.278438568E0
7.572857620E0,-8.013393402E0,-5.477933407E0,-3.861847401E0
7.582867390E0,-8.339004517E0,-5.834669590E0,-3.576937437E0
7.592846543E0,-8.616731644E0,-6.294356346E0,-3.385401249E0
7.602856390E0,-8.815450668E0,-6.725312710E0,-3.210624456E0
7.612866159E0,-9.085995674E0,-7.194576263E0,-2.920926094E0
7.622845313E0,-9.416395187E0,-7.548917770E0,-2.552218914E0
7.632855159E0,-9.854534149E0,-7.592013359E0,-2.413355350E0
7.642864928E0,-1.021605873E1,-7.410054207E0,-2.542642117E0
7.652844313E0,-1.061349583E1,-7.232883453E0,-2.770091295E0
7.662853928E0,-1.120246983E1,-7.010222435E0,-2.925714493E0
7.672863774E0,-1.199495029E1,-6.526593685E0,-2.794033289E0
7.682843082E0,-1.270363426E1,-5.925649166E0,-2.683900118E0
7.692852697E0,-1.354878712E1,-5.334281445E0,-2.662352324E0
7.702862544E0,-1.437239265E1,-4.802768707E0,-2.741360903E0
7.712841851E0,-1.505473995E1,-4.290409565E0,-2.779668093E0
7.722851467E0,-1.560780048E1,-3.842693806E0,-2.839523315E0
7.732861313E0,-1.598129654E1,-3.699041605E0,-3.174711466E0
7.742840390E0,-1.584243298E1,-3.758896589E0,-3.754108191E0
7.752850236E0,-1.518402672E1,-3.904942989E0,-4.460397720E0
7.762860005E0,-1.464054298E1,-4.268861771E0,-5.200206280E0
7.772869852E0,-1.424310589E1,-4.900930882E0,-5.894524574E0
7.782849005E0,-1.361821938E1,-5.264849663E0,-6.337451935E0
7.792858852E0,-1.253125191E1,-5.137956619E0,-6.612784863E0
7.802868621E0,-1.159033012E1,-4.910507679E0,-6.871358871E0
7.812847775E0,-1.068292809E1,-4.860229492E0,-7.151480675E0
7.822857621E0,-9.981427193E0,-4.869806290E0,-7.005434036E0
7.832867390E0,-9.378087997E0,-4.817133904E0,-6.607996464E0
7.842846544E0,-9.224859238E0,-4.881777287E0,-6.098031521E0
7.852856390E0,-9.749189377E0,-5.245696068E0,-5.410895824E0
7.862866159E0,-1.070687008E1,-5.643133640E0,-4.687847137E0
7.872845313E0,-1.153765774E1,-5.985504150E0,-4.264073372E0
7.882855159E0,-1.198537350E1,-6.208165169E0,-4.072536945E0
7.892864929E0,-1.201649857E1,-6.234501362E0,-3.945644379E0
7.902844313E0,-1.243308926E1,-6.354211330E0,-4.113238335E0
7.912853929E0,-1.309388924E1,-6.780379295E0,-4.417302132E0
7.922863775E0,-1.369243908E1,-7.383718014E0,-4.618414879E0
7.932843083E0,-1.391270638E1,-7.958326340E0,-4.795586109E0
7.942852698E0,-1.380736160E1,-8.583212852E0,-4.857835293E0
7.952862544E0,-1.322078133E1,-9.018958092E0,-4.594472885E0
7.962841621E0,-1.203325748E1,-9.081207275E0,-4.232948780E0
7.972851467E0,-1.097741508E1,-8.987833023E0,-3.830722809E0
7.982861237E0,-9.823410034E0,-8.815450668E0,-3.493140221E0
7.992840390E0,-8.571242332E0,-8.623914719E0,-3.277662039E0
8.002850237E0,-7.366958618E0,-8.549694061E0,-2.937685490E0
8.012860006E0,-6.428431511E0,-8.511386871E0,-2.207453966E0
8.022869852E0,-5.726930618E0,-8.451532364E0,-1.120486379E0
8.032849006E0,-4.790797710E0,-8.020575523E0,-6.224924326E-2
8.042858852E0,-3.859453201E0,-7.465120792E0,1.197100878E-1
8.052868621E0,-3.962403774E0,-7.223306656E0,-3.806780577E-1
8.062847775E0,-4.900930882E0,-7.275979042E0,-1.323993564E0
8.072857621E0,-5.556941986E0,-7.366958618E0,-1.989581585E0
8.082867391E0,-5.851428986E0,-7.405265808E0,-1.996764183E0
8.092846545E0,-5.767632008E0,-7.333439827E0,-1.699883223E0
8.102856391E0,-5.568912983E0,-7.611167431E0,-1.446097851E0
8.112866160E0,-5.370194435E0,-7.891288757E0,-1.276109457E0
8.122845314E0,-5.125985622E0,-8.169015884E0,-1.333570361E0
8.132855160E0,-5.013458252E0,-8.377311707E0,-1.453280449E0
8.142864929E0,-4.884171486E0,-8.506598473E0,-1.630451322E0
8.152844314E0,-4.616020679E0,-8.489839554E0,-1.807622313E0
8.162853929E0,-4.467580318E0,-8.427590370E0,-1.951274395E0
8.172863699E0,-4.278438568E0,-8.379706383E0,-2.085349798E0
8.182843083E0,-4.335899353E0,-8.389283180E0,-2.133233786E0
8.192852699E0,-4.493916512E0,-8.513781548E0,-2.183511972E0
8.202862545E0,-4.575319290E0,-8.623914719E0,-2.308010340E0
8.212841853E0,-4.659116745E0,-8.777143478E0,-2.482787132E0
8.222851468E0,-4.726154327E0,-9.109937668E0,-2.662352324E0
8.232861237E0,-4.979939461E0,-9.643844604E0,-2.691082716E0
8.242840391E0,-5.118803024E0,-1.005085850E1,-2.535459518E0
8.252850237E0,-4.821922302E0,-1.007240677E1,-2.116474390E0
8.262860083E0,-4.498704910E0,-9.952696800E0,-1.810016513E0
8.272869853E0,-3.632004023E0,-9.691728592E0,-1.472434044E0
8.282849007E0,-2.975992680E0,-9.593565941E0,-1.101332784E0
8.292858853E0,-2.650381327E0,-9.811438560E0,-7.254431248E-1
8.302868622E0,-2.255337954E0,-9.919178009E0,-2.801215947E-1
8.312847776E0,-1.891419291E0,-9.746794701E0,-2.873042040E-2
8.322857622E0,-1.941697598E0,-9.263166428E0,-4.548983276E-2
8.332867391E0,-2.463633537E0,-8.834604263E0,-4.525041282E-1
8.342846545E0,-3.445256233E0,-8.932766914E0,-1.273715258E0
8.352856391E0,-4.220977783E0,-9.212887764E0,-2.161964178E0
8.362866161E0,-5.255272865E0,-9.296685219E0,-2.971204281E0
8.372845314E0,-6.722918510E0,-9.260771751E0,-3.835511208E0
8.382855161E0,-8.216899872E0,-9.222464561E0,-4.841075897E0
8.392864930E0,-9.548076630E0,-9.033323288E0,-5.925649166E0
8.402844315E0,-1.024957752E1,-8.750806808E0,-6.866570473E0
8.412853930E0,-1.043632507E1,-8.506598473E0,-7.623138428E0
8.422863776E0,-1.014423275E1,-8.324639320E0,-8.149862289E0
8.432842853E0,-9.473855972E0,-7.943961143E0,-8.343792915E0
8.442852699E0,-8.516175270E0,-7.383718014E0,-8.109161377E0
8.452862545E0,-7.453149796E0,-6.689399719E0,-7.817068577E0
8.462841853E0,-6.540958881E0,-6.069301128E0,-7.445967197E0
8.472851469E0,-5.805939198E0,-5.705382824E0,-7.026981831E0
8.482861238E0,-5.480327606E0,-5.312733650E0,-6.569689274E0
8.492840392E0,-5.125985622E0,-4.872200489E0,-6.325480938E0
8.502850238E0,-4.733336926E0,-4.656722069E0,-6.548141479E0
8.512860007E0,-4.532223701E0,-4.687847137E0,-6.720524311E0
8.522869853E0,-4.592078686E0,-4.869806290E0,-6.603208065E0
8.532849007E0,-4.924872875E0,-5.200206280E0,-6.155492783E0
8.542858853E0,-5.638344765E0,-5.573701382E0,-5.389348030E0
8.552868623E0,-6.229712963E0,-5.954379559E0,-4.807557106E0
8.562847776E0,-6.643909931E0,-6.351817131E0,-4.584896088E0
8.572857623E0,-7.007828236E0,-6.569689274E0,-4.328716755E0
8.582867392E0,-7.242460251E0,-6.837840080E0,-4.082113743E0
8.592846546E0,-7.687781811E0,-7.084442616E0,-4.000710964E0
8.602856392E0,-8.022970200E0,-7.331045628E0,-4.395754337E0
8.612866161E0,-8.185775757E0,-7.745242596E0,-5.149928093E0
8.622845315E0,-8.106766701E0,-7.869740963E0,-5.863399982E0
8.632855161E0,-8.195352554E0,-8.125920296E0,-6.430825710E0
8.642864931E0,-8.827422142E0,-8.300697327E0,-6.332663536E0
8.652844315E0,-1.007001209E1,-8.154650688E0,-5.477933407E0
8.662853931E0,-1.120007515E1,-7.797914982E0,-3.926490784E0
8.672863777E0,-1.350569153E1,-7.311892033E0,-2.810792685E0
8.682842854E0,-1.586637497E1,-6.303933144E0,-1.728613615E0
8.692852700E0,-1.718557930E1,-5.006275654E0,-9.241618514E-1
8.702862469E0,-1.809298134E1,-3.976768970E0,-3.256114423E-1
8.712841854E0,-1.926135254E1,-3.517082214E0,4.668693244E-1
8.722851469E0,-1.977610588E1,-3.323152065E0,1.747767210E0
8.732861315E0,-1.935233307E1,-3.165134668E0,2.138022184E0
8.742840392E0,-1.900038528E1,-3.483563423E0,1.977610588E0
8.752850238E0,-1.824142265E1,-4.168305397E0,1.936909199E0
8.762860085E0,-1.697728348E1,-4.520252705E0,1.917755604E0
8.772869854E0,-1.528697777E1,-4.484339714E0,1.651999116E0
8.782849008E0,-1.377863121E1,-4.314351559E0,1.345541358E0
8.792858854E0,-1.275151825E1,-4.369418144E0,9.672574997E-1
8.802868623E0,-1.214099693E1,-4.479551315E0,7.445967197E-1
8.812847777E0,-1.161906052E1,-4.601655483E0,6.272808313E-1
8.822857623E0,-1.147780323E1,-5.003881454E0,4.596867263E-1
8.832867392E0,-1.188481712E1,-5.549759388E0,3.974374831E-1
8.842846546E0,-1.246421432E1,-6.023811340E0,5.961562395E-1
8.852856393E0,-1.306037045E1,-6.373364925E0,6.416460276E-1
8.862866162E0,-1.370680428E1,-6.600813866E0,6.368576288E-1
8.872845316E0,-1.417367363E1,-6.739677906E0,6.967126727E-1
8.882855162E0,-1.461660099E1,-7.153874874E0,7.637503147E-1
8.892864931E0,-1.506910515E1,-7.886500359E0,6.631938815E-1
8.902844085E0,-1.547372532E1,-8.927978516E0,5.913678408E-1
8.912853931E0,-1.557188797E1,-9.914389610E0,5.027823448E-1
8.922863777E0,-1.517923832E1,-1.064462090E1,3.256114423E-1
8.932843085E0,-1.439154625E1,-1.096783829E1,1.532289088E-1
8.942852700E0,-1.337640476E1,-1.092953110E1,-5.506663769E-2
8.952862470E0,-1.239957047E1,-1.074757099E1,-2.896983922E-1
8.962841624E0,-1.153286934E1,-1.040280628E1,-7.230489254E-1
8.972851470E0,-1.080503273E1,-1.014183807E1,-1.340752959E0
8.982861316E0,-1.019690514E1,-1.000058079E1,-1.862688899E0
8.992840393E0,-9.634267807E0,-9.943120003E0,-2.360682964E0
9.002850239E0,-8.990227699E0,-9.955090523E0,-2.736572504E0
9.012860008E0,-8.358158112E0,-9.916783333E0,-2.952050686E0
9.022869854E0,-7.824251175E0,-9.895236015E0,-3.143586874E0
9.032849008E0,-7.338228226E0,-9.842563629E0,-3.165134668E0
9.042858855E0,-6.754043102E0,-9.679757118E0,-3.021482468E0
9.052868624E0,-6.289567947E0,-9.488221169E0,-2.858676910E0
9.062847778E0,-5.884947777E0,-9.320627213E0,-2.789244890E0
9.072857624E0,-5.504269600E0,-9.217676163E0,-2.731784105E0
9.082867393E0,-5.018246651E0,-9.071630478E0,-2.746149302E0
9.092846547E0,-4.714183331E0,-8.887276649E0,-2.770091295E0
9.102856393E0,-4.532223701E0,-8.702922821E0,-2.779668093E0
9.112866162E0,-4.350264549E0,-8.592789650E0,-2.971204281E0
9.122845316E0,-4.072536945E0,-8.508993149E0,-3.198653460E0
9.132855162E0,-3.632004023E0,-8.362946510E0,-3.311181068E0
9.142864932E0,-3.143586874E0,-8.176198959E0,-3.373430252E0
9.152844316E0,-2.868253708E0,-8.025363922E0,-3.507505417E0
9.162853932E0,-2.588132143E0,-7.848193169E0,-3.572149038E0
9.172863778E0,-2.473210335E0,-7.702147007E0,-3.632004023E0
9.182843086E0,-2.564189911E0,-7.558494568E0,-3.612850428E0
9.192852701E0,-2.803610086E0,-7.618350029E0,-3.615244627E0
9.202862470E0,-3.174711466E0,-7.795520782E0,-3.746925592E0
9.212841624E0,-3.756502390E0,-7.982268333E0,-3.974374771E0
9.222851470E0,-4.412513733E0,-8.221688271E0,-4.340687752E0
9.232861240E0,-4.910507679E0,-8.576030731E0,-4.587290287E0
9.242840393E0,-4.963180065E0,-8.599972725E0,-4.489128113E0
9.252850240E0,-4.781220913E0,-8.149862289E0,-4.158728123E0
9.262860086E0,-4.649539471E0,-7.536946774E0,-3.713406801E0
9.272869855E0,-4.778826714E0,-7.311892033E0,-3.646369219E0
9.282849009E0,-4.774038315E0,-6.943184853E0,-3.519476414E0
9.292858855E0,-3.548206806E0,-6.751648903E0,-3.610456228E0
9.302868624E0,-3.040636063E0,-6.636727333E0,-3.763684988E0
9.312847778E0,-3.371036053E0,-6.660669327E0,-4.187458992E0
9.322857624E0,-3.665522814E0,-6.569689274E0,-4.872200489E0
9.332867394E0,-4.103661537E0,-6.598419666E0,-5.528211594E0
9.342846548E0,-4.704606533E0,-6.854599476E0,-5.887341976E0
9.352856394E0,-5.446808815E0,-7.082048416E0,-6.038176537E0
9.362866163E0,-6.145915985E0,-7.254431248E0,-6.165069580E0
9.372845317E0,-6.931213856E0,-7.381323814E0,-6.311115742E0
9.382855163E0,-7.886500359E0,-7.441178799E0,-6.586448669E0
9.392864932E0,-8.628703117E0,-7.572859764E0,-7.168240070E0
9.402844317E0,-8.978256226E0,-7.738059998E0,-7.848193169E0
9.412853932E0,-8.669404030E0,-7.563282967E0,-8.274360657E0
9.422863702E0,-8.090007782E0,-7.199364662E0,-8.410830498E0
9.432843086E0,-7.465120792E0,-6.828263283E0,-8.324639320E0
9.442852702E0,-6.904877663E0,-6.552929878E0,-8.015787125E0
9.452862548E0,-6.505045891E0,-6.129156113E0,-7.501033783E0
9.462841856E0,-6.236895561E0,-5.700594425E0,-7.280767441E0
9.472851471E0,-6.189011574E0,-5.451597214E0,-6.907271862E0
9.482861240E0,-6.296750546E0,-5.276820660E0,-6.110002518E0
9.492840394E0,-6.418854713E0,-5.080495834E0,-5.465962410E0
9.502850240E0,-6.856993675E0,-4.987122059E0,-5.011064053E0
9.512860086E0,-7.371747017E0,-5.099649429E0,-4.690241337E0
9.522869856E0,-7.778761387E0,-5.456385612E0,-4.508281708E0
9.532849010E0,-8.293514252E0,-5.813121796E0,-3.924096584E0
9.542858856E0,-8.884882927E0,-6.081272125E0,-3.033453465E0
9.552868625E0,-9.763554573E0,-6.476315498E0,-2.197877169E0
9.562847779E0,-1.055364132E1,-6.789956093E0,-1.719036818E0
9.572857625E0,-1.119768143E1,-6.969521046E0,-1.424550056E0
9.582867394E0,-1.191594219E1,-7.280767441E0,-1.362300754E0
9.592846548E0,-1.235408115E1,-7.513004780E0,-1.302445769E0
9.602856394E0,-1.248815632E1,-7.453149796E0,-1.216254473E0
9.612866164E0,-1.261504841E1,-7.103596210E0,-1.120486379E0
9.622845317E0,-1.271081638E1,-6.576871872E0,-1.194706678E0
9.632855164E0,-1.301966858E1,-6.009446144E0,-1.228225470E0
9.642864933E0,-1.337161636E1,-5.465962410E0,-1.278503656E0
9.652844087E0,-1.366849709E1,-4.994304657E0,-1.474828243E0
9.662853933E0,-1.400368595E1,-4.556165695E0,-1.707065821E0
9.672863702E0,-1.427423096E1,-4.055777550E0,-1.939303398E0
9.682842856E0,-1.466687965E1,-3.605667830E0,-2.159569979E0
9.692852702E0,-1.513853741E1,-3.332728863E0,-2.382230759E0
9.702862548E0,-1.550245571E1,-3.351882458E0,-2.643198729E0
9.712841625E0,-1.576581860E1,-3.464409828E0,-2.975992680E0
9.722851472E0,-1.586398029E1,-3.392583847E0,-3.174711466E0
9.732861241E0,-1.576581860E1,-3.287238836E0,-3.416525841E0
9.742840395E0,-1.568680954E1,-3.423708439E0,-3.713406801E0
9.752850241E0,-1.538035202E1,-3.550601006E0,-3.971980572E0
9.762860087E0,-1.446816063E1,-3.342305660E0,-4.084507942E0
9.772869856E0,-1.313459015E1,-3.019088268E0,-4.086902142E0
9.782849010E0,-1.225352383E1,-2.806004286E0,-4.027047157E0
9.792858856E0,-1.152568722E1,-2.741360903E0,-3.888183594E0
9.802868626E0,-1.096065521E1,-2.655169725E0,-3.557783842E0
9.812847779E0,-1.055603504E1,-2.652775526E0,-3.371036053E0
9.822857626E0,-1.069011021E1,-2.873042107E0,-3.203441858E0
9.832867395E0,-1.151850414E1,-3.265691042E0,-3.016694069E0
9.842846549E0,-1.306755257E1,-3.912125587E0,-3.122039080E0
9.852856395E0,-1.399889755E1,-4.165910721E0,-3.268085241E0
9.862866164E0,-1.444661331E1,-3.971980572E0,-3.512293816E0
9.872845318E0,-1.520078659E1,-4.165910721E0,-4.192247391E0
9.882855164E0,-1.615367889E1,-4.836287498E0,-4.802768707E0
9.892864933E0,-1.668279839E1,-5.453991413E0,-5.295974255E0
9.902844318E0,-1.682405472E1,-6.112396717E0,-5.449203014E0
9.912853934E0,-1.622550583E1,-6.801927090E0,-5.286397457E0
9.922863780E0,-1.483207989E1,-7.043741226E0,-4.778826714E0
9.932842857E0,-1.312022495E1,-7.091625214E0,-4.180276394E0
9.942852703E0,-1.134372807E1,-7.309497833E0,-3.725377798E0
9.952862472E0,-9.809044838E0,-7.613561630E0,-3.220201254E0
9.962841857E0,-8.367734909E0,-7.996633530E0,-2.621650934E0
9.972851472E0,-6.830657482E0,-8.149862289E0,-1.908178806E0
9.982861318E0,-5.006275654E0,-8.063671112E0,-1.323993564E0
9.992840395E0,-3.450044632E0,-7.656657219E0,-1.292868972E0
1.000285024E1,-2.916137695E0,-7.299921036E0,-1.503558636E0
1.001286001E1,-3.481169224E0,-7.168240070E0,-1.968033791E0
1.002286986E1,-4.642356873E0,-7.252037048E0,-2.463633537E0
1.003284901E1,-5.779603004E0,-7.472303391E0,-2.592920542E0
1.004285886E1,-6.658275127E0,-7.642292023E0,-2.312798738E0
1.005286863E1,-7.005434036E0,-7.884106159E0,-2.027888775E0
1.006284778E1,-7.053318024E0,-8.015787125E0,-1.666364431E0
1.007285763E1,-7.024587631E0,-7.977479935E0,-1.132457376E0
1.008286740E1,-7.105990410E0,-7.910442352E0,-8.259995580E-1
1.009284655E1,-7.278373241E0,-8.001421928E0,-8.451532125E-1
1.010285640E1,-7.259219646E0,-8.046912193E0,-9.457096457E-1
1.011286616E1,-7.213729858E0,-8.145073891E0,-1.192312479E0
1.012284532E1,-7.036558628E0,-8.240841866E0,-1.546654344E0
1.013285516E1,-6.691793919E0,-8.367734909E0,-2.092532396E0
1.014286493E1,-6.234501362E0,-8.432378769E0,-2.535459518E0
1.015284409E1,-5.695806026E0,-8.379706383E0,-2.896984100E0
1.016285393E1,-5.300762653E0,-8.379706383E0,-3.112462282E0
1.017286378E1,-5.164293289E0,-8.609549522E0,-3.189076662E0
1.018284309E1,-5.233725071E0,-9.090784073E0,-3.086126089E0
1.019285270E1,-5.226542473E0,-9.526528358E0,-2.925714493E0
1.020286247E1,-4.750096321E0,-9.797073364E0,-2.966415882E0
1.021284163E1,-4.170699596E0,-9.907206535E0,-2.918531895E0
1.022285147E1,-3.751713991E0,-9.753977776E0,-2.659958124E0
1.023286132E1,-3.541024208E0,-9.421183586E0,-2.169146776E0
1.024284040E1,-3.454833031E0,-9.105149269E0,-1.659181833E0
1.025285024E1,-3.277662039E0,-9.076418877E0,-1.395819545E0
1.026286009E1,-2.655169725E0,-8.863334656E0,-1.192312479E0
1.027286986E1,-1.642422318E0,-8.037335396E0,-5.410895944E-1
1.028284901E1,-1.328781962E0,-7.175422668E0,1.221042871E-1
1.029285886E1,-1.750161409E0,-6.976703644E0,6.200982332E-1
1.030286863E1,-2.844311714E0,-7.235277653E0,8.140285611E-1
1.031284778E1,-4.345476151E0,-7.785943985E0,5.506663918E-1
1.032285763E1,-5.695806026E0,-8.054094315E0,-4.788403399E-3
1.033286740E1,-7.275979042E0,-8.180987358E0,-8.762778044E-1
1.034284655E1,-9.174580574E0,-8.506598473E0,-2.272097349E0
1.035285640E1,-1.075954247E1,-8.544905663E0,-3.643975019E0
1.036286616E1,-1.112106705E1,-8.262390137E0,-4.857835293E0
1.037284532E1,-1.042674828E1,-7.697358608E0,-5.899312973E0
1.038285516E1,-9.114726067E0,-7.220912457E0,-6.564900875E0
1.039286494E1,-7.453149796E0,-6.868964672E0,-6.986280441E0
1.040284432E1,-6.210559368E0,-6.488286495E0,-7.141903877E0
1.041285394E1,-5.303156853E0,-6.098031521E0,-7.062894821E0
1.042286378E1,-4.584896088E0,-5.695806026E0,-6.756437302E0
1.043284309E1,-4.496310711E0,-5.530605793E0,-6.263231754E0
1.044285270E1,-4.809951305E0,-5.238513470E0,-5.731719017E0
1.045286247E1,-5.245696068E0,-5.068524837E0,-5.183446884E0
1.046287385E1,-5.882553577E0,-5.166687489E0,-4.659116745E0
1.047285631E1,-6.596025467E0,-5.418078423E0,-4.259284973E0
1.048286616E1,-7.304709435E0,-5.619191170E0,-3.912125587E0
1.049284523E1,-7.417236805E0,-6.035782337E0,-3.505111217E0
1.050285508E1,-7.486668587E0,-6.457161903E0,-3.064578056E0
1.051286492E1,-8.121131897E0,-6.600813866E0,-2.492363930E0
1.052287469E1,-8.561665535E0,-6.584054470E0,-1.723825216E0
1.053285385E1,-9.380482674E0,-6.646304131E0,-9.433154464E-1
1.054286369E1,-1.074757099E1,-6.854599476E0,-8.547300100E-1
1.055287346E1,-1.166215611E1,-7.024587631E0,-1.436521053E0
1.056285262E1,-1.169806957E1,-7.218518257E0,-2.140416384E0
1.057286246E1,-1.162624359E1,-7.407660007E0,-2.647987127E0
1.058287223E1,-1.184411621E1,-7.706935406E0,-2.647987127E0
1.059285139E1,-1.212423706E1,-8.015787125E0,-2.035071373E0
1.060286123E1,-1.255279922E1,-8.267178535E0,-1.280897856E0
1.061287100E1,-1.313459015E1,-8.305485725E0,-4.740519226E-1
1.062285016E1,-1.369483376E1,-8.022970200E0,4.477157295E-1
1.063286000E1,-1.378581333E1,-7.465120792E0,1.537077546E0
1.064286977E1,-1.398932076E1,-6.794744492E0,2.327163935E0
1.065284892E1,-1.461420727E1,-6.363788128E0,2.691082716E0
1.066285877E1,-1.559104156E1,-6.205770969E0,2.808398485E0
1.067286862E1,-1.646492577E1,-6.090848923E0,2.652775526E0
1.068284792E1,-1.719755173E1,-5.999869347E0,2.434903145E0
1.069285754E1,-1.767878532E1,-6.078877926E0,2.106897593E0
1.070286739E1,-1.796608925E1,-5.925649166E0,1.742978811E0
1.071284646E1,-1.799242592E1,-5.614402771E0,1.359906554E0
1.072285631E1,-1.758541107E1,-5.111620426E0,9.074024558E-1
1.073286608E1,-1.697728348E1,-4.702212334E0,4.955997467E-1
1.074284523E1,-1.631648445E1,-4.477157116E0,4.836287498E-1
1.075285508E1,-1.549048519E1,-4.376600742E0,8.236053586E-1
1.076286492E1,-1.484883881E1,-4.441244125E0,1.254561663E0
1.077287469E1,-1.447294903E1,-4.781220913E0,1.565807939E0
1.078285385E1,-1.443703651E1,-5.372588634E0,1.778891921E0
1.079286369E1,-1.445858383E1,-6.030993938E0,1.805228114E0
1.080287346E1,-1.427423096E1,-6.658275127E0,1.656787634E0
1.081285262E1,-1.379778481E1,-7.098807812E0,1.482010841E0
1.082286246E1,-1.315853214E1,-7.649474621E0,1.074996591E0
1.083287223E1,-1.259350109E1,-8.307879448E0,7.158663273E-1
1.084285139E1,-1.207874775E1,-9.006986618E0,3.184288144E-1
1.085286123E1,-1.133415127E1,-9.648633003E0,1.460463107E-1
1.086287100E1,-1.043153667E1,-9.742006302E0,2.035071403E-1
1.087285016E1,-9.509769440E0,-9.512163162E0,3.687070608E-1
1.088286000E1,-8.611943245E0,-8.992621422E0,6.177040339E-1
1.089286977E1,-7.984662533E0,-8.520963669E0,5.746083856E-1
1.090284916E1,-7.613561630E0,-8.169015884E0,2.466027737E-1
1.091285877E1,-7.383718014E0,-7.773972988E0,-9.097966552E-2
1.092286862E1,-7.132327080E0,-7.436390400E0,-4.764461517E-1
1.093284792E1,-6.684611320E0,-7.187393665E0,-8.259995580E-1
1.094285754E1,-6.229712963E0,-6.991068840E0,-1.204283476E0
1.095286739E1,-5.784391403E0,-6.931213856E0,-1.527500629E0
1.096284669E1,-5.329493046E0,-6.789956093E0,-1.683123827E0
1.097285631E1,-4.941632271E0,-6.593631268E0,-1.549048543E0
1.098286608E1,-4.647145271E0,-6.409277916E0,-1.367089152E0
1.099284523E1,-4.558559895E0,-6.272808552E0,-1.379060149E0
1.100285508E1,-4.594472885E0,-6.239289761E0,-1.465251446E0
1.101286492E1,-4.860229492E0,-6.291962147E0,-1.582567334E0
1.102287469E1,-5.195417881E0,-6.382941723E0,-1.716642618E0
1.103285385E1,-5.439626217E0,-6.380547523E0,-1.946485996E0
1.104286369E1,-5.726930618E0,-6.478709698E0,-2.229001760E0
1.105287346E1,-6.064512730E0,-6.768408298E0,-2.470816135E0
1.106285262E1,-6.282385349E0,-7.038952827E0,-2.786850691E0
1.107286246E1,-6.332663536E0,-7.187393665E0,-3.055001259E0
1.108287223E1,-6.902483463E0,-7.398083210E0,-3.105279684E0
1.109285139E1,-7.484274387E0,-7.673416615E0,-3.155557871E0
1.110286123E1,-7.580042362E0,-7.812280178E0,-3.009511471E0
1.111287100E1,-7.824251175E0,-7.764396191E0,-2.473210335E0
1.112285016E1,-8.271966934E0,-7.905653954E0,-1.912967205E0
1.113286000E1,-8.717288017E0,-8.152256966E0,-1.501164436E0
1.114286977E1,-8.875306129E0,-8.180987358E0,-1.048660398E0
1.115284916E1,-8.609549522E0,-7.884106159E0,-8.092401624E-1
1.116285877E1,-8.875306129E0,-7.671022415E0,-9.888052940E-1
1.117286854E1,-8.911218643E0,-7.639897823E0,-1.776497602E0
1.118284770E1,-7.864952564E0,-7.429207802E0,-2.602497339E0
1.119285754E1,-6.586448669E0,-7.244854450E0,-2.980781078E0
1.120286739E1,-5.212177277E0,-7.189787865E0,-3.081337690E0
1.121284670E1,-3.313575268E0,-7.343016624E0,-3.234566450E0
1.122285631E1,-1.041477680E0,-7.532158375E0,-3.428496838E0
1.123286616E1,1.338358760E0,-7.735665798E0,-3.734954596E0
1.124284523E1,2.731784105E0,-8.164227486E0,-4.082113743E0
1.125285508E1,2.940079689E0,-8.566453934E0,-4.005499363E0
1.126286485E1,2.049436569E0,-8.712499619E0,-3.320757866E0
1.127287470E1,1.197100878E-1,-8.542511940E0,-2.585737944E0
1.128285385E1,-2.173935175E0,-8.169015884E0,-2.037465572E0
1.129286370E1,-4.515464306E0,-8.116343498E0,-1.970427990E0
1.130287346E1,-6.588842869E0,-8.441955566E0,-2.209848166E0
1.131285262E1,-8.224082947E0,-8.813055992E0,-2.523488522E0
1.132286246E1,-9.126696587E0,-8.916007042E0,-2.798821688E0
1.133287223E1,-9.222464561E0,-8.623914719E0,-3.086126089E0
1.134285139E1,-8.540117264E0,-8.063671112E0,-3.524264812E0
1.135286123E1,-7.608773232E0,-7.515398979E0,-4.182670593E0
1.136287100E1,-6.641515732E0,-6.921637058E0,-5.003881454E0
1.137285016E1,-5.918466568E0,-6.344634533E0,-5.875370979E0
1.138286000E1,-5.559336185E0,-5.659893036E0,-6.433219910E0
1.139286977E1,-5.506663799E0,-5.140350819E0,-6.543353081E0
1.140284916E1,-5.760449409E0,-4.936843872E0,-6.325480938E0
1.141285877E1,-6.351817131E0,-4.903325081E0,-5.923254967E0
1.142286862E1,-7.237671852E0,-5.090072632E0,-5.355829239E0
1.143284770E1,-7.740454197E0,-5.197812080E0,-4.893748283E0
1.144285754E1,-7.764396191E0,-5.418078423E0,-5.032611847E0
1.145286731E1,-7.867346764E0,-5.691017628E0,-5.008669853E0
1.146284646E1,-8.346187592E0,-5.990292549E0,-4.752490520E0
1.147285631E1,-8.865729332E0,-6.423643112E0,-4.410119534E0
1.148286616E1,-9.471462250E0,-6.998251438E0,-3.950432777E0
1.149284523E1,-1.025436592E1,-7.623138428E0,-3.550601006E0
1.150285508E1,-1.072841740E1,-8.133103371E0,-3.114856482E0
1.151286485E1,-1.095826149E1,-8.382100105E0,-2.784456491E0
1.152287470E1,-1.117613316E1,-8.429984093E0,-2.468421936E0
1.153285385E1,-1.166933918E1,-8.360552788E0,-2.408566952E0
1.154286370E1,-1.210747814E1,-8.171410561E0,-2.384624958E0
1.155287347E1,-1.231816769E1,-7.848193169E0,-2.382230759E0
1.156285262E1,-1.261744308E1,-7.534552574E0,-2.413355350E0
1.157286246E1,-1.284010410E1,-7.141903877E0,-2.585737944E0
1.158287223E1,-1.329260826E1,-6.706159115E0,-2.870647907E0
1.159285139E1,-1.401086807E1,-6.325480938E0,-3.169923067E0
1.160286123E1,-1.486320400E1,-6.030993938E0,-3.526659012E0
1.161287100E1,-1.565568447E1,-5.616796970E0,-3.847482204E0
1.162285016E1,-1.657027054E1,-5.315127850E0,-4.103661537E0
1.163286000E1,-1.727177048E1,-5.066130638E0,-4.407725334E0
1.164286977E1,-1.774103546E1,-4.759673119E0,-4.874594688E0
1.165284893E1,-1.779849625E1,-4.493916512E0,-5.580883980E0
1.166285877E1,-1.720233917E1,-3.981557369E0,-6.126761913E0
1.167286854E1,-1.625662994E1,-3.627215624E0,-6.564900875E0
1.168284793E1,-1.530373764E1,-3.562572241E0,-6.624756336E0
1.169285754E1,-1.416888523E1,-3.751713991E0,-6.382941723E0
1.170286739E1,-1.326627159E1,-4.027047157E0,-6.026205540E0
1.171284646E1,-1.277067184E1,-4.165910721E0,-5.623979568E0
1.172285631E1,-1.276348972E1,-4.139574528E0,-5.288791656E0
1.173286616E1,-1.295981407E1,-4.242525578E0,-5.255272865E0
1.174284523E1,-1.323035812E1,-4.510675907E0,-5.274426460E0
1.175285508E1,-1.351047993E1,-4.896142483E0,-5.078101635E0
1.176286485E1,-1.353681660E1,-5.360617638E0,-4.932055473E0
1.177287470E1,-1.341710663E1,-6.004657745E0,-4.651933670E0
1.178285385E1,-1.314177322E1,-6.703764915E0,-4.146757126E0
1.179286370E1,-1.268448067E1,-7.436390400E0,-3.768473387E0
1.180287347E1,-1.226070690E1,-7.817068577E0,-3.579331636E0
1.181285262E1,-1.167891598E1,-7.946355343E0,-3.466804028E0
1.182286246E1,-1.104684639E1,-7.793126583E0,-3.256114244E0
1.183287224E1,-1.042674828E1,-7.505822182E0,-2.999934673E0
1.184285139E1,-9.821015358E0,-7.225700855E0,-2.853888512E0
1.185286124E1,-9.236829758E0,-6.974309444E0,-2.681505919E0
1.186287100E1,-8.698134422E0,-6.845022678E0,-2.542642117E0
1.187285016E1,-8.317456245E0,-6.936002254E0,-2.398990154E0
1.188286000E1,-7.972691536E0,-7.103596210E0,-2.190694571E0
1.189286977E1,-7.706935406E0,-7.290344238E0,-2.027888775E0
1.190284893E1,-7.448361397E0,-7.546523571E0,-1.908178806E0
1.191285877E1,-7.326257229E0,-7.762001991E0,-1.687912226E0
1.192286854E1,-7.192182064E0,-7.893682957E0,-1.412579060E0
1.193284793E1,-7.029376030E0,-8.010998726E0,-1.297657371E0
1.194285754E1,-6.909666061E0,-8.159439087E0,-1.146822572E0
1.195286739E1,-6.792350292E0,-8.396465302E0,-1.017535686E0
1.196284647E1,-6.576871872E0,-8.638279915E0,-9.552865028E-1
1.197285631E1,-6.236895561E0,-8.781931877E0,-8.403648138E-1
1.198286616E1,-5.803544998E0,-8.710105896E0,-6.823474765E-1
1.199284524E1,-5.372588634E0,-8.513781548E0,-5.817909837E-1
1.200285508E1,-5.178658485E0,-8.339004517E0,-5.985504389E-1
1.201286493E1,-5.262455463E0,-8.173804283E0,-7.038952708E-1
1.202287470E1,-5.327098846E0,-8.195352554E0,-8.595184088E-1
1.203285385E1,-4.984727859E0,-8.178592682E0,-9.935936928E-1
1.204286370E1,-4.742913723E0,-8.104372978E0,-1.228225470E0
1.205287347E1,-5.102043629E0,-8.034940720E0,-1.766920805E0
1.206285262E1,-5.669469833E0,-8.073247910E0,-2.633621931E0
1.207286247E1,-5.542576790E0,-8.394071579E0,-3.337517262E0
1.208287224E1,-4.244919777E0,-9.229647636E0,-3.445256233E0
1.209285139E1,-2.741360903E0,-1.002691650E1,-3.239354849E0
1.210286124E1,-1.201889277E0,-1.063504410E1,-2.698265314E0
1.211287100E1,3.040636182E-1,-1.086488724E1,-2.094926596E0
1.212285016E1,7.924807668E-1,-1.077869606E1,-1.575384736E0
1.213286001E1,4.453215301E-1,-1.034055710E1,-1.077390790E0
1.214286977E1,2.873042040E-2,-9.883264542E0,-7.302315235E-1
1.215284893E1,-2.657563984E-1,-9.543288231E0,-8.140285611E-1
1.216285877E1,-5.171475410E-1,-9.081207275E0,-9.720458984E-1
1.217286862E1,-1.661576033E0,-8.741230011E0,-9.816226959E-1
1.218284793E1,-3.342305660E0,-8.803479195E0,-1.122880578E0
1.219285754E1,-4.984727859E0,-9.078812599E0,-1.326387763E0
1.220286731E1,-6.418854713E0,-9.258378029E0,-1.659181833E0
1.221284670E1,-7.520187378E0,-9.296685219E0,-2.140416384E0
1.222285631E1,-8.590395927E0,-9.409213066E0,-2.762908697E0
1.223286608E1,-9.825803757E0,-9.605537415E0,-3.663128614E0
1.224284524E1,-1.039562416E1,-9.813833237E0,-4.501099110E0
1.225285508E1,-1.033098030E1,-9.878476143E0,-5.092466831E0
1.226286493E1,-9.801861763E0,-9.753977776E0,-5.372588634E0
1.227287470E1,-8.983044624E0,-9.382876396E0,-5.274426460E0
1.228285385E1,-8.061277390E0,-8.956708908E0,-4.955997467E0
1.229286370E1,-7.127538681E0,-8.429984093E0,-4.448426723E0
1.230287347E1,-6.220136166E0,-7.809885979E0,-3.715801001E0
1.231285262E1,-5.621585369E0,-7.493851185E0,-3.035847664E0
1.232286247E1,-5.528211594E0,-7.189787865E0,-2.463633537E0
1.233287224E1,-6.150704384E0,-7.050923824E0,-2.123656988E0
1.234285139E1,-7.395689011E0,-6.926425457E0,-2.154781580E0
1.235286124E1,-8.779537201E0,-6.651092529E0,-2.456450939E0
1.236287100E1,-9.744400978E0,-6.150704384E0,-2.861071110E0
1.237285016E1,-1.018493366E1,-5.573701382E0,-3.545812607E0
1.238286001E1,-1.006522369E1,-5.327098846E0,-4.546588898E0
1.239286977E1,-9.718064308E0,-5.348646641E0,-5.748478413E0
1.240284916E1,-9.203310966E0,-5.623979568E0,-6.584054470E0
1.241285877E1,-8.355764389E0,-5.918466568E0,-6.792350292E0
1.242286854E1,-7.766790390E0,-6.533776283E0,-6.536170483E0
1.243284770E1,-7.611167431E0,-7.163451672E0,-5.990292549E0
1.244285754E1,-8.164227486E0,-7.848193169E0,-5.389348030E0
1.245286739E1,-8.767566681E0,-8.358158112E0,-4.965574265E0
1.246284670E1,-9.208099365E0,-8.678980827E0,-4.656722069E0
1.247285631E1,-9.777919769E0,-8.827422142E0,-4.352658749E0
1.248286608E1,-1.043153667E1,-8.889671326E0,-3.988739967E0
1.249284524E1,-1.117613316E1,-8.846575737E0,-3.794809580E0
1.250285508E1,-1.178426075E1,-8.578424454E0,-3.792415380E0
1.251286485E1,-1.242351246E1,-7.936778545E0,-4.096478939E0
1.252287470E1,-1.374990082E1,-7.273584843E0,-4.474762917E0
1.253285385E1,-1.517444992E1,-6.727706909E0,-4.884171486E0
1.254286370E1,-1.683602715E1,-6.090848923E0,-5.363011837E0
1.255287347E1,-1.829409599E1,-5.358223438E0,-5.985504150E0
1.256285262E1,-1.922543907E1,-4.668693542E0,-6.801927090E0
1.257286247E1,-1.949837875E1,-4.623203278E0,-7.793126583E0
1.258287224E1,-1.867716789E1,-4.865017891E0,-8.635885239E0
1.259285139E1,-1.678096008E1,-4.778826714E0,-8.923190117E0
1.260286124E1,-1.511459541E1,-4.654327869E0,-8.887276649E0
1.261287101E1,-1.358948898E1,-4.747702122E0,-8.700529099E0
1.262285016E1,-1.245942593E1,-5.018246651E0,-8.281543732E0
1.263286001E1,-1.193988419E1,-5.432443619E0,-7.474697590E0
1.264286978E1,-1.165497398E1,-5.726930618E0,-6.392518520E0
1.265284916E1,-1.169806957E1,-5.913678169E0,-5.487510204E0
1.266285878E1,-1.235408115E1,-6.289567947E0,-4.805162907E0
1.267286862E1,-1.285207462E1,-6.768408298E0,-4.374206543E0
1.268284770E1,-1.299812126E1,-7.290344238E0,-3.986345768E0
1.269285754E1,-1.312261963E1,-7.781155586E0,-3.471592426E0
1.270286731E1,-1.330218506E1,-8.408436775E0,-3.074155092E0
1.271284670E1,-1.351047993E1,-9.251194954E0,-2.734178305E0
1.272285631E1,-1.370441055E1,-1.019929886E1,-2.454056740E0
1.273286616E1,-1.372595787E1,-1.111149025E1,-2.104503393E0
1.274284524E1,-1.336443424E1,-1.160230160E1,-1.685518026E0
1.275285508E1,-1.271321106E1,-1.174355888E1,-1.319205165E0
1.276286485E1,-1.195424938E1,-1.150653362E1,-8.355764151E-1
1.277287470E1,-1.116655636E1,-1.107078838E1,-5.099649429E-1
1.278285385E1,-1.049618053E1,-1.052969933E1,-2.561795712E-1
1.279286370E1,-1.001015759E1,-1.006043530E1,-3.830722719E-2
1.280287347E1,-9.595960617E0,-9.538499832E0,1.053448766E-1
1.281285262E1,-9.203310966E0,-9.121908188E0,1.987187415E-1
1.282286247E1,-8.959102631E0,-8.832210541E0,2.442085743E-1
1.283287224E1,-8.750806808E0,-8.746018410E0,2.968810201E-1
1.284285139E1,-8.262390137E0,-9.030928612E0,1.819593310E-1
1.285286124E1,-7.467514992E0,-9.320627213E0,1.077390760E-1
1.286287101E1,-6.481103897E0,-9.411606789E0,2.059013397E-1
1.287285016E1,-5.731719017E0,-9.327810287E0,4.261679053E-1
1.288286001E1,-5.216965675E0,-9.083600998E0,4.860229492E-1
1.289286978E1,-4.944026470E0,-8.899248123E0,4.333505034E-1
1.290284893E1,-4.778826714E0,-8.846575737E0,4.022258818E-1
1.291285878E1,-4.558559895E0,-8.743624687E0,4.405331016E-1
1.292286862E1,-4.304774761E0,-8.583212852E0,4.046200812E-1
1.293284793E1,-4.079719543E0,-8.269572258E0,2.561795712E-1
1.294285754E1,-4.098873138E0,-7.987056732E0,-1.316810995E-1
1.295286731E1,-4.213795185E0,-7.862558365E0,-7.374141216E-1
1.296284647E1,-4.264073372E0,-7.687781811E0,-1.467645645E0
1.297285631E1,-4.474762917E0,-7.460332394E0,-2.145204782E0
1.298286616E1,-4.757278919E0,-7.433996201E0,-2.743755102E0
1.299284524E1,-4.975151062E0,-7.503427982E0,-3.260902643E0
1.300285508E1,-5.183446884E0,-7.556100368E0,-3.629609823E0
1.301286485E1,-5.382165432E0,-7.647080421E0,-3.881000996E0
1.302287470E1,-5.662287235E0,-7.876923561E0,-3.900154591E0
1.303285385E1,-5.659893036E0,-8.070854187E0,-3.713406801E0
1.304286370E1,-5.497087002E0,-8.231265068E0,-3.414131641E0
1.305287347E1,-4.893748283E0,-8.216899872E0,-2.995146275E0
1.306285262E1,-3.936067581E0,-7.838616371E0,-2.403778553E0
1.307286247E1,-3.222595453E0,-7.491456985E0,-1.924938202E0
1.308287224E1,-2.779668093E0,-7.386112213E0,-1.769315004E0
1.309285139E1,-2.458845139E0,-7.321468830E0,-1.869871497E0
1.310286124E1,-2.114080191E0,-7.024587631E0,-1.975216389E0
1.311287101E1,-2.128445387E0,-6.940790653E0,-2.185906172E0
1.312285016E1,-2.413355350E0,-7.141903877E0,-2.391807556E0
1.313286001E1,-2.851494312E0,-7.240066051E0,-2.489969730E0
1.314286978E1,-3.447650433E0,-7.340622425E0,-2.408566952E0
1.315284893E1,-4.168305397E0,-7.548917770E0,-2.276885748E0
1.316285878E1,-4.900930882E0,-7.685387611E0,-2.030282974E0
1.317286862E1,-5.540182590E0,-7.843404770E0,-2.248155355E0
1.318284793E1,-6.227318764E0,-8.166622162E0,-2.870647907E0
1.319285755E1,-6.715735912E0,-8.530540466E0,-3.909731388E0
1.320286732E1,-7.101202011E0,-8.892065048E0,-5.133168221E0
1.321284647E1,-7.072471619E0,-9.004592896E0,-6.234501362E0
1.322285632E1,-6.696582317E0,-8.899248123E0,-7.029376030E0
1.323286608E1,-6.323086739E0,-8.635885239E0,-7.412448406E0
1.324284524E1,-5.793968201E0,-8.207323074E0,-7.173028469E0
1.325285508E1,-5.446808815E0,-7.864952564E0,-6.715735912E0
1.326286493E1,-5.324704647E0,-7.529764175E0,-6.215347767E0
1.327287470E1,-5.446808815E0,-7.302315235E0,-5.724536419E0
1.328285385E1,-5.664681435E0,-7.175422668E0,-5.303156853E0
1.329286370E1,-5.995080948E0,-7.165845871E0,-5.046977043E0
1.330287347E1,-6.552929878E0,-7.149086475E0,-4.862623692E0
1.331285262E1,-7.271190643E0,-7.046135426E0,-4.872200489E0
1.332286247E1,-7.965508938E0,-6.981492043E0,-4.841075897E0
1.333287224E1,-8.743624687E0,-6.933608055E0,-4.620809078E0
1.334285139E1,-9.394847870E0,-7.082048416E0,-4.400542736E0
1.335286124E1,-9.890447617E0,-7.366958618E0,-4.084507942E0
1.336287101E1,-1.054406452E1,-7.699752808E0,-3.663128614E0
1.337285016E1,-1.146822643E1,-8.109161377E0,-3.210624456E0
1.338286001E1,-1.240914726E1,-8.410830498E0,-2.715024710E0
1.339286978E1,-1.331894398E1,-8.499416351E0,-2.317587137E0
1.340284893E1,-1.399410915E1,-8.267178535E0,-2.032677174E0
1.341285878E1,-1.453280449E1,-7.953537941E0,-1.941697598E0
1.342286855E1,-1.502840424E1,-7.558494568E0,-1.958456993E0
1.343284793E1,-1.538992882E1,-6.883329868E0,-2.114080191E0
1.344285755E1,-1.547851372E1,-6.050147533E0,-2.358288765E0
1.345286739E1,-1.543302441E1,-5.193023682E0,-2.659958124E0
1.346284647E1,-1.524867058E1,-4.697423935E0,-3.026270866E0
1.347285632E1,-1.512417221E1,-4.496310711E0,-3.165134668E0
1.348286609E1,-1.491108799E1,-4.635174274E0,-3.213018656E0
1.349284524E1,-1.477222443E1,-4.979939461E0,-3.265691042E0
1.350285508E1,-1.462378407E1,-5.298368454E0,-3.315969467E0
1.351286493E1,-1.434845066E1,-5.463568211E0,-3.351882458E0
1.352287470E1,-1.417846203E1,-5.379771233E0,-3.507505417E0
1.353285385E1,-1.414733791E1,-5.188235283E0,-4.058171749E0
1.354286370E1,-1.408269405E1,-4.805162907E0,-4.546588898E0
1.355287347E1,-1.408030033E1,-4.328716755E0,-4.848258495E0
1.356285262E1,-1.429098988E1,-3.993528366E0,-5.073313236E0
1.357286247E1,-1.458068848E1,-3.950432777E0,-5.257667065E0
1.358287224E1,-1.480334949E1,-4.113238335E0,-5.485116005E0
1.359285139E1,-1.511698914E1,-4.374206543E0,-5.638344765E0
1.360286124E1,-1.541865921E1,-4.924872875E0,-5.784391403E0
1.361287101E1,-1.540668774E1,-5.600037575E0,-5.774814606E0
1.362285016E1,-1.516966152E1,-6.191405773E0,-5.525817394E0
1.363286001E1,-1.459026527E1,-6.964732647E0,-5.202600479E0
1.364286978E1,-1.411621284E1,-7.783549786E0,-4.716577530E0
1.365284916E1,-1.384566879E1,-8.422801971E0,-4.144362926E0
1.366285878E1,-1.369722748E1,-9.184157372E0,-3.557783842E0
1.367286855E1,-1.329260826E1,-9.813833237E0,-2.937685490E0
1.368284793E1,-1.255998230E1,-9.816226959E0,-2.422932148E0
1.369285755E1,-1.154723454E1,-9.294290543E0,-1.934514999E0
1.370286739E1,-1.072362900E1,-8.724471092E0,-1.678335428E0
1.371284670E1,-1.008437729E1,-8.192957878E0,-1.486799240E0
1.372285632E1,-9.540893555E0,-7.752425194E0,-1.551442742E0
1.373286609E1,-9.021351814E0,-7.405265808E0,-1.699883223E0
1.374284524E1,-8.559270859E0,-7.170634270E0,-1.714248419E0
1.375285508E1,-8.013393402E0,-7.038952827E0,-1.577778935E0
1.376286493E1,-7.474697590E0,-6.988674641E0,-1.295263171E0
1.377287470E1,-6.940790653E0,-6.967126846E0,-1.055842996E0
1.378285386E1,-6.428431511E0,-6.971915245E0,-9.624691010E-1
1.379286370E1,-5.995080948E0,-7.010222435E0,-9.864110947E-1
1.380287347E1,-5.576095581E0,-7.149086475E0,-1.010353088E0
1.381285262E1,-5.118803024E0,-7.311892033E0,-9.959878922E-1
1.382286247E1,-4.707000732E0,-7.422025204E0,-9.864110947E-1
1.383287224E1,-4.299986362E0,-7.474697590E0,-1.012747288E0
1.384285139E1,-3.950432777E0,-7.462726593E0,-9.959878922E-1
1.385286124E1,-3.739742994E0,-7.534552574E0,-1.017535686E0
1.386287101E1,-3.560178041E0,-7.599195957E0,-1.098938584E0
1.387285016E1,-3.383007050E0,-7.649474621E0,-1.120486379E0
1.388286001E1,-3.157952070E0,-7.678205013E0,-1.247379065E0
1.389286978E1,-2.913743496E0,-7.606379032E0,-1.446097851E0
1.390284916E1,-3.033453465E0,-7.568071365E0,-1.532289028E0
1.391285878E1,-3.426102638E0,-7.611167431E0,-1.745373011E0
1.392286855E1,-3.921702385E0,-7.759607792E0,-2.142810583E0
1.393284770E1,-4.474762917E0,-7.836222172E0,-2.681505919E0
1.394285755E1,-5.171475887E0,-8.037335396E0,-3.138798475E0
1.395286732E1,-6.033388138E0,-8.398859978E0,-3.416525841E0
1.396284670E1,-7.438784599E0,-8.978256226E0,-3.543418407E0
1.397285632E1,-8.049305916E0,-9.227252960E0,-3.490746021E0
1.398286616E1,-8.104372978E0,-9.018958092E0,-3.186682463E0
1.399284524E1,-8.255207062E0,-8.674192429E0,-2.643198729E0
1.400285509E1,-8.173804283E0,-8.465897560E0,-2.240972757E0
1.401286486E1,-7.960720539E0,-8.473079681E0,-2.090138197E0
1.402287470E1,-7.134721279E0,-8.451532364E0,-1.941697598E0
1.403285386E1,-5.755661011E0,-7.876923561E0,-1.323993564E0
1.404286370E1,-4.570530891E0,-7.228095055E0,-5.075707436E-1
1.405287347E1,-3.926490784E0,-6.698976517E0,2.729389966E-1
1.406285263E1,-3.720589399E0,-6.593631268E0,5.315127969E-1
1.407286247E1,-3.720589399E0,-6.866570473E0,1.987187415E-1
1.408287224E1,-3.545812607E0,-7.345410824E0,-5.746083856E-1
1.409285139E1,-3.675099611E0,-7.754819393E0,-1.470039845E0
1.410286124E1,-4.290409565E0,-7.996633530E0,-2.487575531E0
1.411287101E1,-5.341464043E0,-8.090007782E0,-3.864241600E0
1.412285016E1,-6.375759125E0,-8.240841866E0,-5.365406036E0
1.413286001E1,-7.165845871E0,-8.276755333E0,-6.924031258E0
1.414286978E1,-7.568071365E0,-8.032546997E0,-7.927201748E0
1.415284916E1,-7.467514992E0,-7.613561630E0,-8.288725853E0
1.416285878E1,-7.003039837E0,-7.201758862E0,-8.145073891E0
1.417286863E1,-6.366182327E0,-6.830657482E0,-7.716512203E0
1.418284793E1,-5.765237808E0,-6.378153324E0,-6.912060261E0
1.419285755E1,-5.286397457E0,-5.968744755E0,-6.313509941E0
1.420286732E1,-4.951209068E0,-5.688623428E0,-5.925649166E0
1.421284647E1,-4.814739704E0,-5.430049419E0,-5.554547787E0
1.422285632E1,-4.802768707E0,-5.166687489E0,-5.221754074E0
1.423286616E1,-4.934449673E0,-4.982333660E0,-5.078101635E0
1.424284524E1,-5.437232018E0,-5.073313236E0,-4.958391666E0
1.425285509E1,-6.093243122E0,-5.303156853E0,-4.551377296E0
1.426286486E1,-6.670246124E0,-5.461174011E0,-4.060565948E0
1.427287470E1,-7.208941460E0,-5.683835030E0,-3.586514235E0
1.428285386E1,-7.718906403E0,-6.294356346E0,-3.208230257E0
1.429286370E1,-8.173804283E0,-6.959944248E0,-2.722207308E0
1.430287347E1,-8.702922821E0,-7.536946774E0,-2.276885748E0
1.431285263E1,-9.346963882E0,-8.094796181E0,-1.893813491E0
1.432286247E1,-1.004846478E1,-8.640673637E0,-1.604115129E0
1.433287224E1,-1.060870743E1,-8.904036522E0,-1.465251446E0
1.434285139E1,-1.102769279E1,-8.911218643E0,-1.319205165E0
1.435286124E1,-1.153765774E1,-8.741230011E0,-1.156399369E0
1.436287101E1,-1.216972733E1,-8.482656479E0,-1.031900883E0
1.437285016E1,-1.267490387E1,-8.051700592E0,-9.792284966E-1
1.438286001E1,-1.331176186E1,-7.536946774E0,-1.074996591E0
1.439286978E1,-1.389834118E1,-6.854599476E0,-1.446097851E0
1.440284893E1,-1.464293766E1,-6.193799973E0,-1.932120800E0
1.441285878E1,-1.544499493E1,-5.614402771E0,-2.434903145E0
1.442286863E1,-1.628536034E1,-5.260061264E0,-2.904166698E0
1.443284793E1,-1.697728348E1,-5.207388878E0,-3.531447411E0
1.444285755E1,-1.734359741E1,-5.358223438E0,-4.153939724E0
1.445286732E1,-1.738908768E1,-5.501875401E0,-4.666299343E0
1.446284647E1,-1.703713989E1,-5.456385612E0,-4.912901878E0
1.447285632E1,-1.647689629E1,-5.204994678E0,-5.224148273E0
1.448286609E1,-1.582088470E1,-4.865017891E0,-5.456385612E0
1.449284524E1,-1.512896061E1,-4.343081951E0,-5.453991413E0
1.450285509E1,-1.451365089E1,-3.967192173E0,-5.480327606E0
1.451286486E1,-1.409945393E1,-3.904942989E0,-5.655104637E0
1.452287470E1,-1.385763931E1,-3.983951569E0,-5.712565422E0
1.453285386E1,-1.382890892E1,-4.276044369E0,-5.600037575E0
1.454286370E1,-1.404438686E1,-4.853046894E0,-5.238513470E0
1.455287347E1,-1.410424232E1,-5.494692802E0,-4.876988888E0
1.456285263E1,-1.384806252E1,-6.011840343E0,-4.450820923E0
1.457286247E1,-1.356794071E1,-6.454767704E0,-3.979163170E0
1.458287224E1,-1.330218506E1,-7.053318024E0,-3.481169224E0
1.459285140E1,-1.301727486E1,-7.659051418E0,-3.038241863E0
1.460286124E1,-1.277306652E1,-8.255207062E0,-2.578555346E0
1.461287101E1,-1.246421432E1,-8.877699852E0,-2.207453966E0
1.462285016E1,-1.196382618E1,-9.167398453E0,-1.972822189E0
1.463286001E1,-1.127908421E1,-9.085995674E0,-1.663970232E0
1.464286978E1,-1.056800652E1,-8.767566681E0,-1.386242747E0
1.465284916E1,-9.943120003E0,-8.350975990E0,-1.228225470E0
1.466285878E1,-9.428366661E0,-7.979874134E0,-1.213860273E0
1.467286855E1,-8.985439301E0,-7.690176010E0,-1.323993564E0
1.468284793E1,-8.590395927E0,-7.481880188E0,-1.472434044E0
1.469285755E1,-8.121131897E0,-7.350199223E0,-1.443703651E0
1.470286740E1,-7.680599213E0,-7.278373241E0,-1.326387763E0
1.471284647E1,-7.280767441E0,-7.259219646E0,-1.180341482E0
1.472285632E1,-6.902483463E0,-7.311892033E0,-9.959878922E-1
1.473286616E1,-6.447585106E0,-7.386112213E0,-8.643068075E-1
1.474284524E1,-6.042964935E0,-7.433996201E0,-8.667010069E-1
1.475285509E1,-5.628767967E0,-7.474697590E0,-9.265560508E-1
1.476286493E1,-5.260061264E0,-7.474697590E0,-1.051054597E0
1.477287470E1,-5.039794445E0,-7.491456985E0,-1.223437071E0
1.478285386E1,-4.709394932E0,-7.515398979E0,-1.429338455E0
1.479286370E1,-4.220977783E0,-7.503427982E0,-1.656787634E0
1.480287347E1,-3.739742994E0,-7.417236805E0,-1.776497602E0
1.481285263E1,-3.416525841E0,-7.422025204E0,-1.841141105E0
1.482286247E1,-3.313575268E0,-7.450755596E0,-1.977610588E0
1.483287224E1,-3.375824451E0,-7.551311970E0,-2.238578558E0
1.484285140E1,-3.478775024E0,-7.450755596E0,-2.360682964E0
1.485286124E1,-4.041412354E0,-7.295132637E0,-2.437297344E0
1.486287101E1,-5.018246651E0,-7.252037048E0,-2.504334927E0
1.487285017E1,-5.813121796E0,-7.261613846E0,-2.557007313E0
1.488286001E1,-6.713341713E0,-7.436390400E0,-2.626439333E0
1.489286978E1,-7.498639584E0,-7.594407558E0,-2.693476915E0
1.490284917E1,-8.018181801E0,-7.841010571E0,-2.853888512E0
1.491285878E1,-7.900865555E0,-8.068459511E0,-3.095702887E0
1.492286855E1,-7.381323814E0,-8.305485725E0,-3.093308687E0
1.493284770E1,-6.459556103E0,-8.583212852E0,-2.743755102E0
1.494285755E1,-5.714959621E0,-8.908824921E0,-2.207453966E0
1.495286740E1,-5.025429249E0,-9.315838814E0,-1.774103403E0
1.496284670E1,-4.295197964E0,-9.789890289E0,-1.338358760E0
1.497285632E1,-3.222595453E0,-1.001973438E1,-8.523358107E-1
1.498286609E1,-1.917755604E0,-9.787496567E0,-2.705447972E-1
1.499284524E1,-1.376665950E0,-9.516951561E0,3.639186621E-1
1.500285509E1,-1.532289028E0,-9.267954826E0,9.074024558E-1
1.501286494E1,-2.566584110E0,-9.059659004E0,1.048660398E0
1.502287470E1,-4.276044369E0,-8.846575737E0,8.547300100E-1
1.503285386E1,-5.949591160E0,-8.506598473E0,1.987187415E-1
1.504286370E1,-7.759607792E0,-8.475474358E0,-9.241618514E-1
1.505287347E1,-9.605537415E0,-8.712499619E0,-2.561795712E0
1.506285263E1,-1.035492229E1,-9.006986618E0,-4.187458992E0
1.507286247E1,-1.022563553E1,-9.042900085E0,-5.623979568E0
1.508287224E1,-9.481039047E0,-8.777143478E0,-6.615179062E0
1.509285140E1,-8.334216118E0,-8.307879448E0,-7.005434036E0
1.510286124E1,-7.529764175E0,-7.785943985E0,-6.912060261E0
1.511287101E1,-7.177816868E0,-7.302315235E0,-6.387730122E0
1.512285017E1,-7.091625214E0,-6.651092529E0,-5.485116005E0
1.513286001E1,-7.460332394E0,-6.023811340E0,-4.711789131E0
1.514286978E1,-7.931990147E0,-5.403713226E0,-4.082113743E0
1.515284917E1,-8.250418663E0,-4.841075897E0,-3.689464808E0
1.516285878E1,-8.202534676E0,-4.414907932E0,-3.608062029E0
1.517286855E1,-8.037335396E0,-4.216189384E0,-3.691859007E0
1.518284794E1,-7.939172745E0,-4.180276394E0,-3.711012602E0
1.519285755E1,-7.869740963E0,-4.304774761E0,-3.835511208E0
1.520286740E1,-7.915230751E0,-4.594472885E0,-3.773261786E0
1.521284670E1,-7.943961143E0,-4.888959885E0,-3.438073635E0
1.522285632E1,-8.097189903E0,-5.152322292E0,-3.069366693E0
1.523286609E1,-8.312667847E0,-5.463568211E0,-2.853888512E0
1.524284524E1,-8.688557625E0,-5.798756599E0,-2.798821688E0
1.525285509E1,-9.636661530E0,-5.923254967E0,-2.638410330E0
1.526286494E1,-1.182496262E1,-6.035782337E0,-2.149993181E0
1.527287470E1,-1.331176186E1,-5.872976780E0,-1.757344007E0
1.528285386E1,-1.422634697E1,-5.497087002E0,-1.285686255E0
1.529286370E1,-1.446816063E1,-5.061342239E0,-9.744400978E-1
1.530287347E1,-1.391749477E1,-4.651933670E0,-8.690952063E-1
1.531285263E1,-1.358948898E1,-4.197035789E0,-5.554547906E-1
1.532286247E1,-1.384566879E1,-3.208230257E0,-5.698199868E-1
1.533287224E1,-1.444182491E1,-2.099714994E0,-9.026140571E-1
1.534285140E1,-1.569638634E1,-1.379060149E0,-1.295263171E0
1.535286124E1,-1.704671669E1,-7.110779285E-1,-1.699883223E0
1.536287101E1,-1.828930664E1,-1.867477298E-1,-2.296039343E0
1.537285017E1,-1.885673332E1,-9.097966552E-2,-3.272873640E0
1.538286001E1,-1.865322495E1,-2.705447972E-1,-4.508281708E0
1.539286978E1,-1.790384102E1,-3.064578176E-1,-5.762843609E0
1.540284917E1,-1.688391113E1,-3.734954596E-1,-7.153874874E0
1.541285878E1,-1.575145340E1,-5.003881454E-1,-8.372523308E0
1.542286863E1,-1.484883881E1,-5.817909837E-1,-8.966285706E0
1.543284794E1,-1.390552330E1,-7.445967197E-1,-8.961497307E0
1.544285755E1,-1.304839897E1,-1.022324085E0,-8.262390137E0
1.545286740E1,-1.263659668E1,-1.362300754E0,-7.082048416E0
1.546284670E1,-1.251209831E1,-1.733402014E0,-5.695806026E0
1.547285632E1,-1.265814400E1,-2.169146776E0,-4.235342979E0
1.548286617E1,-1.314895535E1,-2.683900118E0,-2.813186884E0
1.549242862E1,-1.365652657E1,-3.100491285E0,-1.898601890E0
1.550243846E1,-1.412100124E1,-3.450044632E0,-1.247379065E0
1.551244831E1,-1.449210262E1,-3.813963413E0,-8.643068075E-1
1.552245808E1,-1.487038708E1,-4.326322556E0,-8.044517636E-1
1.553243723E1,-1.526064205E1,-4.979939461E0,-9.504981041E-1
1.554244708E1,-1.560061836E1,-5.755661011E0,-1.386242747E0
1.555245685E1,-1.571553993E1,-6.754043102E0,-1.826775908E0
1.556243600E1,-1.535880375E1,-7.311892033E0,-1.745373011E0
1.557244585E1,-1.448492050E1,-7.247248650E0,-1.999158382E0
1.558245562E1,-1.356075859E1,-6.928819656E0,-2.073378563E0
1.559243477E1,-1.283770943E1,-6.727706909E0,-1.845929503E0
1.560244462E1,-1.224873543E1,-6.624756336E0,-1.683123827E0
1.561245439E1,-1.159751320E1,-6.533776283E0,-1.599326730E0
1.562243354E1,-1.081221485E1,-6.466738701E0,-1.479616642E0
1.563244339E1,-1.004846478E1,-6.490680695E0,-1.161187768E0
1.564245316E1,-9.579200745E0,-6.619967937E0,-7.733271718E-1
1.565243254E1,-9.289502144E0,-6.789956093E0,-4.501099288E-1
1.566244216E1,-9.174580574E0,-6.955155849E0,-1.843535304E-1
1.567245200E1,-9.076418877E0,-7.211335659E0,-3.591302410E-2
1.568243131E1,-8.896853447E0,-7.436390400E0,6.943184882E-2
1.569244093E1,-8.561665535E0,-7.596801758E0,4.070143029E-2
1.570245077E1,-8.111555099E0,-7.776367188E0,-1.699883193E-1
1.571243008E1,-7.728483200E0,-7.893682957E0,-3.232172430E-1
1.572243969E1,-7.383718014E0,-7.941566944E0,-5.051765442E-1
1.573244954E1,-6.993463039E0,-7.970297337E0,-7.781155705E-1
1.574242862E1,-6.646304131E0,-7.955932140E0,-9.720458984E-1
1.575243846E1,-6.282385349E0,-7.965508938E0,-1.163581967E0
1.576244831E1,-5.992686749E0,-7.996633530E0,-1.414973259E0
1.577245808E1,-5.760449409E0,-8.097189903E0,-1.704671621E0
1.578243723E1,-5.518634796E0,-8.078036308E0,-1.980004787E0
1.579244708E1,-5.382165432E0,-8.022970200E0,-2.387019157E0
1.580245685E1,-5.284003258E0,-8.073247910E0,-2.628833532E0
1.581243600E1,-4.783615112E0,-8.085219383E0,-2.612074137E0
1.582244585E1,-4.161122322E0,-8.006210327E0,-2.557007313E0
1.583245562E1,-3.385401249E0,-7.939172745E0,-2.609679937E0
1.584243477E1,-2.798821688E0,-8.259995461E0,-3.105279684E0
1.585244462E1,-2.384624958E0,-8.961497307E0,-4.065354347E0
1.586245439E1,-2.422932148E0,-9.188945770E0,-6.327875137E0
1.587243354E1,-2.990357876E0,-9.500192642E0,-6.287173748E0
1.588244339E1,-2.621650934E0,-9.356540680E0,-4.400542736E0
1.589245316E1,-2.054224968E0,-8.485051155E0,-2.722207308E0
1.590243254E1,-2.027888775E0,-7.472303391E0,-2.212242365E0
1.591244216E1,-1.994369984E0,-7.223306656E0,-2.614468336E0
1.592245200E1,-1.431732655E0,-7.146692276E0,-2.640804529E0
1.593243131E1,-1.247379065E0,-6.584054470E0,-2.018311977E0
1.594244093E1,-1.642422318E0,-6.282385349E0,-1.395819545E0
1.595245069E1,-2.315192938E0,-6.605602264E0,-9.457096457E-1
1.596243008E1,-3.062183857E0,-7.184999466E0,-9.864110947E-1
1.597243969E1,-3.991134167E0,-7.943961143E0,-1.443703651E0
1.598244954E1,-4.979939461E0,-8.599972725E0,-2.121262789E0
1.599242862E1,-5.789179802E0,-9.382876396E0,-3.002328873E0
1.600243846E1,-6.289567947E0,-1.013465595E1,-3.677493811E0
1.601244831E1,-6.275202751E0,-1.033098030E1,-5.542576790E0
1.602245808E1,-7.070077419E0,-1.037886429E1,-5.008669853E0
1.603243723E1,-6.308721542E0,-1.038844109E1,-4.659116745E0
1.604244708E1,-5.671864033E0,-9.938331604E0,-4.443638325E0
1.605245685E1,-4.972756863E0,-1.003170490E1,-4.280832767E0
1.606243600E1,-4.872200489E0,-1.001494598E1,-4.410119534E0
1.607244585E1,-4.979939461E0,-9.533711433E0,-4.321534157E0
1.608245562E1,-5.430049419E0,-9.181763649E0,-4.019864559E0
1.609243477E1,-6.200982571E0,-8.731653214E0,-3.792415380E0
1.610244462E1,-7.036558628E0,-8.346187592E0,-4.050989151E0
1.611245439E1,-7.632715225E0,-7.982268333E0,-4.517858505E0
1.612243354E1,-8.078036308E0,-7.738059998E0,-5.142745018E0
1.613244339E1,-8.449137688E0,-7.759607792E0,-5.726930618E0
1.614245316E1,-8.307879448E0,-8.101978302E0,-6.117185116E0
1.615243231E1,-8.204929352E0,-8.384494781E0,-6.148310184E0
1.616244216E1,-8.556877136E0,-8.767566681E0,-5.777208805E0
1.617245200E1,-9.112331390E0,-9.363722801E0,-5.662287235E0
1.618243131E1,-9.744400978E0,-9.069235802E0,-4.723760128E0
1.619244093E1,-1.108036518E1,-9.557653427E0,-4.453215122E0
1.620245077E1,-1.197819138E1,-9.890447617E0,-4.417302132E0
1.621243008E1,-1.244506073E1,-9.861717224E0,-4.065354347E0
1.622243970E1,-1.295263100E1,-9.758766174E0,-3.584120035E0
1.623244954E1,-1.324711800E1,-9.483432770E0,-2.999934673E0
1.624242862E1,-1.393425369E1,-9.133879662E0,-1.762132406E0
1.625243846E1,-1.342668343E1,-8.607154846E0,-1.458068848E0
1.626244831E1,-1.372116947E1,-7.824251175E0,-1.242590666E0
1.627245808E1,-1.369243908E1,-7.206547260E0,-1.709460020E0
1.628243723E1,-1.355118179E1,-6.914454460E0,-2.324769735E0
1.629244708E1,-1.327584839E1,-6.586448669E0,-3.105279684E0
1.630245685E1,-1.301488018E1,-6.275202751E0,-3.734954596E0
1.631243600E1,-1.311304283E1,-6.203376770E0,-4.285621166E0
1.632244585E1,-1.318965721E1,-6.382941723E0,-4.589684486E0
1.633245562E1,-1.331655025E1,-6.655880928E0,-4.862623692E0
1.634243477E1,-1.366370869E1,-6.876147270E0,-5.049371243E0
1.635244462E1,-1.367089176E1,-6.825869083E0,-5.173870087E0
1.636245439E1,-1.378102493E1,-6.497863293E0,-5.281609058E0
1.637243354E1,-1.401805115E1,-6.224924564E0,-5.272032261E0
1.638244339E1,-1.423831749E1,-6.019022942E0,-5.310339451E0
1.639245316E1,-1.437718105E1,-5.911283970E0,-5.307945251E0
1.640243254E1,-1.441309452E1,-5.834669590E0,-5.269638062E0
1.641244216E1,-1.452322769E1,-5.808333397E0,-5.257667065E0
1.642245200E1,-1.470279217E1,-5.849034786E0,-5.051765442E0
1.643243131E1,-1.475307083E1,-5.758055210E0,-4.627991676E0
1.644244093E1,-1.481771469E1,-5.889736176E0,-4.429273129E0
1.645245077E1,-1.457590008E1,-6.323086739E0,-4.328716755E0
1.646243008E1,-1.395819569E1,-6.849811077E0,-4.163516521E0
1.647243970E1,-1.339076996E1,-7.644686222E0,-3.940855980E0
1.648244954E1,-1.286404610E1,-8.592789650E0,-3.543418407E0
1.649242862E1,-1.236844635E1,-9.799467087E0,-3.007117271E0
1.650243846E1,-1.209071827E1,-1.076193619E1,-2.516305923E0
1.651244831E1,-1.175553036E1,-1.144428444E1,-2.030282974E0
1.652245808E1,-1.097023201E1,-1.161187840E1,-1.525106430E0
1.653243723E1,-1.009156036E1,-1.125274754E1,-9.816226959E-1
1.654244708E1,-9.344569206E0,-1.072123528E1,-6.607996821E-1
1.655245685E1,-8.817844391E0,-1.011550236E1,-6.296750307E-1
1.656243600E1,-8.372523308E0,-9.603142738E0,-8.283938169E-1
1.657244585E1,-8.099584579E0,-9.229647636E0,-1.235408068E0
1.658245562E1,-7.917624950E0,-8.997409821E0,-1.510741234E0
1.659243477E1,-7.606379032E0,-8.841787338E0,-1.532289028E0
1.660244462E1,-7.264008045E0,-8.724471092E0,-1.419761658E0
1.661245439E1,-7.026981831E0,-8.650250435E0,-1.168370485E0
1.662243354E1,-6.739677906E0,-8.662221909E0,-9.935936928E-1
1.663244339E1,-6.493074894E0,-8.633491516E0,-8.068459630E-1
1.664245316E1,-6.330269337E0,-8.585607529E0,-5.650315881E-1
1.665243254E1,-6.196194172E0,-8.528146744E0,-4.620809257E-1
1.666244216E1,-6.131550789E0,-8.482656479E0,-3.327940404E-1
1.667245200E1,-6.179434776E0,-8.518569946E0,-2.561795712E-1
1.668243131E1,-6.289567947E0,-8.659827232E0,-2.896983922E-1
1.669244093E1,-6.244078159E0,-8.724471092E0,-4.165911078E-1
1.670245077E1,-6.153098583E0,-8.719682693E0,-6.847416759E-1
1.671243008E1,-6.129156113E0,-8.894459724E0,-1.051054597E0
1.672243970E1,-5.813121796E0,-9.030928612E0,-1.410184860E0
1.673244954E1,-5.698200226E0,-8.971074104E0,-1.565807939E0
1.674242862E1,-5.805939198E0,-8.942343712E0,-1.565807939E0
1.675243847E1,-5.956773758E0,-8.920795441E0,-1.628057122E0
1.676244831E1,-6.112396717E0,-8.827422142E0,-1.740584612E0
1.677245808E1,-6.423643112E0,-8.829815865E0,-1.905784607E0
1.678243724E1,-6.761225700E0,-8.920795441E0,-2.233790159E0
1.679244708E1,-6.821080685E0,-8.997409821E0,-2.636016130E0
1.680245685E1,-6.998251438E0,-9.165003777E0,-2.913743496E0
1.681243600E1,-7.134721279E0,-9.260771751E0,-2.987963676E0
1.682244585E1,-6.878541470E0,-8.954314232E0,-2.700659513E0
1.683245562E1,-6.481103897E0,-8.413225174E0,-2.269703150E0
1.684243477E1,-6.083666325E0,-8.130708694E0,-1.891419291E0
1.685244462E1,-5.442020416E0,-8.010998726E0,-1.776497602E0
1.686245439E1,-4.417302132E0,-7.989450932E0,-1.599326730E0
1.687243354E1,-2.980781078E0,-7.881711960E0,-1.158793569E0
1.688244339E1,-1.364694953E0,-7.762001991E0,-6.153098345E-1
1.689245316E1,-2.035071403E-1,-7.726089001E0,-3.184288144E-1
1.690243254E1,4.788403213E-2,-7.809885979E0,-3.256114423E-1
1.691244216E1,-4.572925270E-1,-7.814674377E0,-5.913678408E-1
1.692245200E1,-1.374271750E0,-7.742848396E0,-8.427590132E-1
1.693243131E1,-2.451662540E0,-7.651868820E0,-1.230619669E0
1.694244093E1,-3.143586874E0,-7.608773232E0,-1.587355733E0
1.695245077E1,-3.493140221E0,-7.718906403E0,-2.252943754E0
1.696243008E1,-3.995922565E0,-8.015787125E0,-3.208230257E0
1.697243970E1,-4.594472885E0,-8.307879448E0,-4.252102375E0
1.698244954E1,-4.831499100E0,-8.458714485E0,-5.087678432E0
1.699242862E1,-4.841075897E0,-8.432378769E0,-5.700594425E0
1.700243847E1,-4.441244125E0,-8.192957878E0,-5.779603004E0
1.701244831E1,-4.168305397E0,-7.975085735E0,-5.580883980E0
1.702245808E1,-4.402936935E0,-7.891288757E0,-5.293580055E0
1.703243724E1,-4.625597477E0,-7.711723804E0,-4.876988888E0
1.704244708E1,-4.838681698E0,-7.450755596E0,-4.338293552E0
1.705245685E1,-5.032611847E0,-7.433996201E0,-3.995922565E0
1.706243601E1,-5.171475887E0,-7.611167431E0,-3.928884983E0
1.707244585E1,-5.616796970E0,-7.848193169E0,-3.888183594E0
1.708245562E1,-6.306327343E0,-8.113949776E0,-3.754108191E0
1.709243477E1,-7.268796444E0,-8.374917984E0,-3.730166197E0
1.710244462E1,-8.231265068E0,-8.616731644E0,-3.665522814E0
1.711245439E1,-8.880094528E0,-8.839392662E0,-3.327940464E0
1.712243354E1,-9.296685219E0,-8.995016098E0,-2.820369720E0
1.713244339E1,-9.660603523E0,-9.272743225E0,-2.422932148E0
1.714245316E1,-1.012507915E1,-9.722852707E0,-2.171540976E0
1.715243254E1,-1.052491093E1,-1.010592556E1,-2.152387381E0
1.716244216E1,-1.074996567E1,-1.033337498E1,-1.920149803E0
1.717245200E1,-1.120246983E1,-1.047702694E1,-1.549048543E0
1.718243131E1,-1.166215611E1,-1.039322948E1,-1.221042871E0
1.719244093E1,-1.242111874E1,-1.014662647E1,-3.998316824E-1
1.720245077E1,-1.281137371E1,-1.003170490E1,-8.283938169E-1
1.721243008E1,-1.336682796E1,-9.442731857E0,-4.764461517E-1
1.722243970E1,-1.442027664E1,-8.667010307E0,-2.274491638E-1
1.723244954E1,-1.533246803E1,-8.176198959E0,-3.280056417E-1
1.724242862E1,-1.585679817E1,-7.728483200E0,-5.386953950E-1
1.725243847E1,-1.592622948E1,-7.455543995E0,-8.499416113E-1
1.726244831E1,-1.579454899E1,-7.572859764E0,-1.460463047E0
1.727245808E1,-1.514811420E1,-7.838616371E0,-2.109291792E0
1.728243724E1,-1.430056667E1,-8.049305916E0,-2.817975283E0
1.729244708E1,-1.346738434E1,-8.300697327E0,-3.636792421E0
1.730245685E1,-1.250730991E1,-8.298302650E0,-4.036623955E0
1.731243601E1,-1.177468395E1,-7.893682957E0,-4.338293552E0
1.732244585E1,-1.163103199E1,-7.414842606E0,-4.596867085E0
1.733245562E1,-1.186566353E1,-7.015010834E0,-4.766855717E0
1.734243478E1,-1.203565216E1,-6.691793919E0,-4.663905144E0
1.735244462E1,-1.204044056E1,-6.399701118E0,-4.369418144E0
1.736245439E1,-1.214817905E1,-6.272808552E0,-3.907337189E0
1.737243354E1,-1.263420200E1,-6.402095318E0,-3.517082214E0
1.738244339E1,-1.306276417E1,-6.426037312E0,-3.047818661E0
1.739245316E1,-1.325908947E1,-6.239289761E0,-2.669534922E0
1.740243254E1,-1.350808620E1,-6.064512730E0,-2.549824715E0
1.741244216E1,-1.372356415E1,-5.956773758E0,-2.705447912E0
1.742245201E1,-1.376426601E1,-6.117185116E0,-2.990357876E0
1.743243131E1,-1.360385418E1,-6.777985096E0,-3.318363667E0
1.744244093E1,-1.295981407E1,-7.553706169E0,-3.256114244E0
1.745245078E1,-1.240435886E1,-8.365341187E0,-3.179499865E0
1.746243008E1,-1.188960552E1,-9.191340446E0,-3.081337690E0
1.747243970E1,-1.098220348E1,-9.658209801E0,-2.916137695E0
1.748244954E1,-9.902418137E0,-9.684545517E0,-2.731784105E0
1.749242862E1,-8.916007042E0,-9.402029991E0,-2.590526342E0
1.750246701E1,-8.135497093E0,-8.755595207E0,-2.257732153E0
1.751244831E1,-7.651868820E0,-8.219294548E0,-2.066195965E0
1.752245808E1,-7.524975777E0,-7.874529362E0,-1.965639591E0
1.753243724E1,-7.489062786E0,-7.649474621E0,-1.886630893E0
1.754244708E1,-7.496245384E0,-7.493851185E0,-1.798045516E0
1.755245685E1,-7.429207802E0,-7.465120792E0,-1.608903527E0
1.756243601E1,-7.050923824E0,-7.524975777E0,-1.441309452E0
1.757244585E1,-6.600813866E0,-7.694964409E0,-1.484405041E0
1.758245562E1,-6.143521786E0,-7.896077156E0,-1.632845521E0
1.759243478E1,-5.887341976E0,-8.003816605E0,-1.733402014E0
1.760244462E1,-5.758055210E0,-8.049305916E0,-1.709460020E0
1.761245439E1,-5.600037575E0,-8.042123795E0,-1.709460020E0
1.762243354E1,-5.331887245E0,-8.090007782E0,-1.778891921E0
1.763244339E1,-5.054159641E0,-8.169015884E0,-1.872265697E0
1.764245316E1,-4.821922302E0,-8.274360657E0,-1.910573006E0
1.765243254E1,-4.340687752E0,-8.384494781E0,-1.865083098E0
1.766244216E1,-3.828328609E0,-8.451532364E0,-1.958456993E0
1.767245201E1,-3.687070608E0,-8.504204750E0,-2.061407566E0
1.768243131E1,-3.881000996E0,-8.573636055E0,-2.097320795E0
1.769244093E1,-4.335899353E0,-8.499416351E0,-1.900996208E0
1.770245078E1,-4.824316502E0,-8.410830498E0,-1.663970232E0
1.771243008E1,-5.334281445E0,-8.317456245E0,-1.537077546E0
1.772243970E1,-6.021417141E0,-8.262390137E0,-1.362300754E0
1.773244954E1,-6.842628479E0,-8.564059258E0,-1.347935557E0
1.774242862E1,-7.553706169E0,-8.918401718E0,-1.340752959E0
1.775243847E1,-7.987056732E0,-9.157821655E0,-1.170764685E0
1.776244831E1,-7.999027729E0,-9.117119789E0,-9.911994934E-1
1.777245808E1,-7.931990147E0,-9.138668060E0,-1.118092179E0
1.778243724E1,-7.568071365E0,-9.136273384E0,-1.343147159E0
1.779244708E1,-7.115567684E0,-8.925583839E0,-1.292868972E0
1.780245685E1,-6.825869083E0,-8.829815865E0,-1.264138460E0
1.781243601E1,-6.679822922E0,-8.901641846E0,-1.359906554E0
1.782244585E1,-6.076483727E0,-8.762778282E0,-1.309628367E0
1.783245562E1,-5.202600479E0,-8.389283180E0,-1.051054597E0
1.784243478E1,-4.357447147E0,-7.805097580E0,-5.123591423E-1
1.785244462E1,-3.773261786E0,-7.275979042E0,1.005564705E-1
1.786245439E1,-3.500322819E0,-6.943184853E0,3.303998411E-1
1.787243354E1,-3.406949043E0,-6.742072105E0,2.394201700E-3
1.788244339E1,-3.727771997E0,-6.878541470E0,-6.895300746E-1
1.789245316E1,-4.417302132E0,-7.290344238E0,-1.642422318E0
1.790243254E1,-5.231330872E0,-7.745242596E0,-2.784456491E0
1.791244216E1,-5.868188381E0,-8.080430984E0,-3.967192173E0
1.792245193E1,-6.323086739E0,-8.214506149E0,-5.056553841E0
1.793243131E1,-6.303933144E0,-7.888894558E0,-5.712565422E0
1.794244093E1,-6.011840343E0,-7.115567684E0,-5.755661011E0
1.795245078E1,-5.554547787E0,-6.406883717E0,-5.506663799E0
1.796243008E1,-5.023035049E0,-5.887341976E0,-5.343858242E0
1.797243970E1,-4.357447147E0,-5.497087002E0,-5.147533417E0
1.798244954E1,-3.708618402E0,-5.145139217E0,-4.944026470E0
1.799242862E1,-3.191470861E0,-4.857835293E0,-4.687847137E0
1.800243847E1,-3.002328873E0,-4.754884720E0,-4.508281708E0
1.801244832E1,-3.349488258E0,-4.876988888E0,-4.362235546E0
1.802245808E1,-3.603273630E0,-4.996698856E0,-4.098873138E0
1.803243724E1,-3.816357613E0,-5.137956619E0,-3.857059002E0
1.804244708E1,-4.182670593E0,-5.444414616E0,-3.598485231E0
1.805245685E1,-4.565742493E0,-5.808333397E0,-3.447650433E0
1.806243601E1,-4.874594688E0,-6.174646378E0,-3.143586874E0
1.807244585E1,-5.255272865E0,-6.524199486E0,-2.758120298E0
1.808245562E1,-5.772420406E0,-6.979097843E0,-2.303221941E0
1.809243478E1,-6.507440090E0,-7.469909191E0,-2.032677174E0
1.810244462E1,-7.199364662E0,-7.922413349E0,-1.831564307E0
1.811245439E1,-7.838616371E0,-8.315062523E0,-1.606509328E0
1.812243355E1,-8.528146744E0,-8.571242332E0,-1.388636947E0
1.813244339E1,-9.382876396E0,-8.822632790E0,-1.470039845E0
1.814245316E1,-1.026633644E1,-8.963891029E0,-1.683123827E0
1.815243255E1,-1.106599998E1,-8.882488251E0,-1.831564307E0
1.816244216E1,-1.205001736E1,-8.774748802E0,-2.142810583E0
1.817245201E1,-1.303403378E1,-8.482656479E0,-2.420537949E0
1.818243132E1,-1.411142445E1,-8.013393402E0,-2.657563925E0
1.819244093E1,-1.526064205E1,-7.412448406E0,-3.014299870E0
1.820245078E1,-1.662533569E1,-6.787561893E0,-3.574543238E0
1.821243008E1,-1.791341782E1,-6.131550789E0,-4.220977783E0
1.822243970E1,-1.896925926E1,-5.734113216E0,-5.087678432E0
1.823244955E1,-1.953907967E1,-5.619191170E0,-6.102819920E0
1.824242862E1,-1.925656509E1,-5.540182590E0,-6.754043102E0
1.825243847E1,-1.815762520E1,-5.552153587E0,-7.395689011E0
1.826244832E1,-1.671870995E1,-5.633556366E0,-7.862558365E0
1.827245808E1,-1.522712326E1,-5.861005783E0,-8.013393402E0
1.828243724E1,-1.366849709E1,-6.059724331E0,-7.903259754E0
1.829244709E1,-1.229422569E1,-6.148310184E0,-7.536946774E0
1.830245685E1,-1.102051067E1,-6.133944988E0,-6.914454460E0
1.831243601E1,-1.004607010E1,-5.956773758E0,-6.500257492E0
1.832244585E1,-9.404424667E0,-5.899312973E0,-6.347028732E0
1.833245562E1,-9.184157372E0,-5.937620163E0,-6.325480938E0
1.834243478E1,-9.291896820E0,-5.679046631E0,-6.172252178E0
1.835244462E1,-9.744400978E0,-5.477933407E0,-5.992686749E0
1.836245439E1,-1.041956615E1,-5.477933407E0,-5.801150799E0
1.837243355E1,-1.096544361E1,-5.609614372E0,-5.382165432E0
1.838244339E1,-1.141076565E1,-5.805939198E0,-4.853046894E0
1.839245316E1,-1.158793640E1,-6.141127586E0,-4.206612587E0
1.840243255E1,-1.158314800E1,-6.660669327E0,-3.725377798E0
1.841244216E1,-1.137485218E1,-7.240066051E0,-3.430891037E0
1.842245201E1,-1.070208168E1,-7.505822182E0,-2.987963676E0
1.843243132E1,-1.002691650E1,-7.386112213E0,-2.528276920E0
1.844244093E1,-9.509769440E0,-6.943184853E0,-2.075772762E0
1.845245078E1,-9.076418877E0,-6.433219910E0,-1.687912226E0
1.846243008E1,-8.743624687E0,-5.961562157E0,-1.544260144E0
1.847243970E1,-8.597578049E0,-5.542576790E0,-1.601720929E0
1.848244955E1,-8.487444878E0,-5.288791656E0,-1.747767210E0
1.849242862E1,-8.372523308E0,-5.202600479E0,-1.891419291E0
1.850243847E1,-8.147468567E0,-5.291185856E0,-2.037465572E0
1.851244832E1,-7.857769966E0,-5.470750809E0,-2.092532396E0
1.852245808E1,-7.484274387E0,-5.741295815E0,-2.059013367E0
1.853243724E1,-7.249642849E0,-5.983109951E0,-1.951274395E0
1.854244709E1,-6.986280441E0,-6.234501362E0,-1.798045516E0
1.855245685E1,-6.607996464E0,-6.387730122E0,-1.647210717E0
1.856243601E1,-6.268020153E0,-6.536170483E0,-1.474828243E0
1.857244585E1,-5.949591160E0,-6.694188118E0,-1.422155857E0
1.858245562E1,-5.698200226E0,-6.773196697E0,-1.422155857E0
1.859243478E1,-5.499481201E0,-6.766014099E0,-1.271321058E0
1.860244462E1,-5.334281445E0,-6.813898087E0,-1.268926859E0
1.861245439E1,-5.094861031E0,-6.777985096E0,-1.395819545E0
1.862243355E1,-4.941632271E0,-6.720524311E0,-1.599326730E0
1.863244339E1,-4.771644115E0,-6.677428722E0,-1.862688899E0
1.864245316E1,-4.764461517E0,-6.715735912E0,-2.300827742E0
1.865243255E1,-4.996698856E0,-6.816292286E0,-2.808398485E0
1.866244216E1,-5.389348030E0,-6.866570473E0,-3.102885485E0
1.867245201E1,-5.851428986E0,-6.976703644E0,-3.045424461E0
1.868243132E1,-6.306327343E0,-7.165845871E0,-2.978386879E0
1.869244093E1,-6.607996464E0,-7.362170219E0,-2.820369720E0
1.870245078E1,-6.799532890E0,-7.673416615E0,-2.810792685E0
1.871243009E1,-6.976703644E0,-8.061277390E0,-2.956839085E0
1.872243970E1,-7.091625214E0,-8.482656479E0,-3.191470861E0
1.873244955E1,-6.773196697E0,-8.808267593E0,-3.399766445E0
1.874242862E1,-5.822698593E0,-8.674192429E0,-3.303998232E0
1.875243847E1,-4.637568474E0,-8.307879448E0,-2.935291290E0
1.876244832E1,-3.555389643E0,-8.070854187E0,-2.521094322E0
1.877245809E1,-2.470816135E0,-7.860164165E0,-2.197877169E0
1.878243724E1,-1.448492050E0,-7.457938194E0,-1.999158382E0
1.879244709E1,-1.074996591E0,-6.921637058E0,-1.838746905E0
1.880245686E1,-1.771709204E0,-6.902483463E0,-1.872265697E0
1.881243601E1,-3.016694069E0,-7.376535416E0,-2.097320795E0
1.882244586E1,-4.194641590E0,-7.675810814E0,-2.308010340E0
1.883245562E1,-5.401319027E0,-7.838616371E0,-2.372653961E0
1.884243478E1,-6.560112476E0,-8.068459511E0,-2.437297344E0
1.885244462E1,-7.570465565E0,-8.252813339E0,-2.604891539E0
1.886245439E1,-8.350975990E0,-8.298302650E0,-2.822763920E0
1.887243355E1,-8.889671326E0,-8.334216118E0,-3.136404276E0
1.888244339E1,-9.141061783E0,-8.408436775E0,-3.670311213E0
1.889245316E1,-8.705317497E0,-8.334216118E0,-4.017470360E0
1.890243232E1,-7.699752808E0,-7.967903137E0,-3.998316765E0
1.891244216E1,-6.682217121E0,-7.390900612E0,-3.567360640E0
1.892245193E1,-6.069301128E0,-6.828263283E0,-3.002328873E0
1.893243132E1,-5.767632008E0,-6.234501362E0,-2.437297344E0
1.894244093E1,-5.592854977E0,-5.659893036E0,-1.994369984E0
1.895245078E1,-5.576095581E0,-5.114014626E0,-1.853112102E0
1.896243009E1,-5.518634796E0,-4.790797710E0,-2.269703150E0
1.897243970E1,-5.403713226E0,-4.601655483E0,-3.071760893E0
1.898244955E1,-5.295974255E0,-4.438849926E0,-3.813963413E0
1.899242863E1,-5.305551052E0,-4.328716755E0,-4.343081951E0
1.900243847E1,-5.446808815E0,-4.338293552E0,-4.642356873E0
1.901244832E1,-5.719748020E0,-4.498704910E0,-4.742913723E0
1.902245809E1,-6.019022942E0,-4.721365929E0,-4.508281708E0
1.903243724E1,-6.392518520E0,-5.094861031E0,-4.216189384E0
1.904244709E1,-6.471527100E0,-5.590460777E0,-4.039018154E0
1.905245686E1,-6.739677906E0,-6.157886982E0,-3.895366192E0
1.906243601E1,-7.304709435E0,-6.859387875E0,-3.849876404E0
1.907244586E1,-7.826645374E0,-7.390900612E0,-3.811569214E0
1.908245562E1,-8.315062523E0,-7.716512203E0,-3.713406801E0
1.909243478E1,-9.030928612E0,-8.061277390E0,-3.744531393E0
1.910244462E1,-1.005325317E1,-8.549694061E0,-3.766079187E0
1.911245439E1,-1.096065521E1,-8.846575737E0,-3.481169224E0
1.912243355E1,-1.178426075E1,-8.911218643E0,-3.110068083E0
1.913244339E1,-1.266772079E1,-8.487444878E0,-2.758120298E0
1.914245316E1,-1.384566879E1,-7.663839817E0,-2.461239338E0
1.915243255E1,-1.536838055E1,-6.742072105E0,-2.262520552E0
1.916244216E1,-1.723346329E1,-5.935225964E0,-2.413355350E0
1.917245201E1,-1.950795555E1,-5.257667065E0,-3.074155092E0
1.918243109E1,-2.082237244E1,-4.707000732E0,-3.988739967E0
1.919244093E1,-2.119108009E1,-4.129997730E0,-4.829104900E0
1.920245078E1,-2.102827263E1,-3.931279182E0,-5.597643375E0
1.921243009E1,-2.027409935E1,-4.256890774E0,-6.071695328E0
1.922243970E1,-1.837789154E1,-4.580107689E0,-6.138733387E0
1.923244955E1,-1.587355709E1,-4.611232281E0,-5.849034786E0
1.924242863E1,-1.352245140E1,-4.819528103E0,-5.425261021E0
1.925243847E1,-1.217690945E1,-5.037400246E0,-4.836287498E0
1.926244832E1,-1.119049835E1,-5.224148273E0,-4.235342979E0
1.927245809E1,-1.060391903E1,-5.485116005E0,-3.857059002E0
1.928243724E1,-1.066137981E1,-5.863399982E0,-3.552995205E0
1.929244709E1,-1.112346077E1,-6.069301128E0,-3.270479441E0
1.930245686E1,-1.163821411E1,-5.992686749E0,-3.124433279E0
1.931243601E1,-1.238759995E1,-5.973533154E0,-3.157952070E0
1.932244586E1,-1.325669479E1,-6.023811340E0,-3.148375273E0
1.933245563E1,-1.358230591E1,-6.126761913E0,-3.191470861E0
1.934243478E1,-1.388876438E1,-6.555324078E0,-3.184288263E0
1.935244463E1,-1.409227085E1,-7.228095055E0,-3.002328873E0
1.936245440E1,-1.418564510E1,-7.903259754E0,-2.657563925E0
1.937243355E1,-1.414494324E1,-8.571242332E0,-2.257732153E0
1.938244340E1,-1.375229454E1,-8.951920509E0,-1.829170108E0
1.939245316E1,-1.300051498E1,-9.038111687E0,-1.371877551E0
1.940243255E1,-1.219845772E1,-8.848969460E0,-1.053448796E0
1.941244216E1,-1.143470764E1,-8.573636055E0,-9.576807022E-1
1.942245201E1,-1.070208168E1,-8.322244644E0,-1.067813993E0
1.943243109E1,-1.007719517E1,-8.142680168E0,-1.240196466E0
1.944244093E1,-9.579200745E0,-8.066065788E0,-1.369483352E0
1.945245078E1,-9.033323288E0,-7.982268333E0,-1.407790542E0
1.946243009E1,-8.468291283E0,-7.987056732E0,-1.426944256E0
1.947243970E1,-7.941566944E0,-7.987056732E0,-1.391031146E0
1.948244955E1,-7.352593422E0,-7.994239330E0,-1.364694953E0
1.949242863E1,-6.809109688E0,-7.953537941E0,-1.328781962E0
1.950243847E1,-6.210559368E0,-7.900865555E0,-1.235408068E0
1.951244832E1,-5.638344765E0,-7.785943985E0,-1.158793569E0
1.952245809E1,-5.166687489E0,-7.742848396E0,-1.161187768E0
1.953243724E1,-4.709394932E0,-7.802703381E0,-1.242590666E0
1.954244709E1,-4.326322556E0,-7.773972988E0,-1.297657371E0
1.955245686E1,-4.034229755E0,-7.575253963E0,-1.223437071E0
1.956243601E1,-3.849876404E0,-7.378929615E0,-1.182735682E0
1.957244586E1,-3.608062029E0,-7.218518257E0,-1.259350061E0
1.958245563E1,-3.500322819E0,-7.048529625E0,-1.393425345E0
1.959243478E1,-3.629609823E0,-6.950367451E0,-1.584961534E0
1.960244463E1,-3.876212597E0,-6.962338448E0,-1.817199111E0
1.961245440E1,-4.206612587E0,-6.950367451E0,-1.977610588E0
1.962243355E1,-4.548983097E0,-6.914454460E0,-2.023100376E0
1.963244340E1,-4.862623692E0,-7.005434036E0,-2.140416384E0
1.964245317E1,-5.403713226E0,-7.278373241E0,-2.274491549E0
1.965243255E1,-5.999869347E0,-7.654263020E0,-2.319981337E0
1.966244216E1,-6.268020153E0,-7.905653954E0,-2.329558372E0
1.967245201E1,-6.141127586E0,-7.936778545E0,-2.334346771E0
1.968243132E1,-6.239289761E0,-7.874529362E0,-2.051830769E0
1.969244093E1,-6.155492783E0,-7.654263020E0,-1.719036818E0
1.970245078E1,-5.655104637E0,-7.271190643E0,-1.508347034E0
1.971243009E1,-5.185841084E0,-6.715735912E0,-1.118092179E0
1.972243970E1,-5.056553841E0,-6.315904140E0,-8.523358107E-1
1.973244955E1,-5.070919037E0,-6.265625954E0,-9.744400978E-1
1.974242863E1,-4.979939461E0,-6.368576527E0,-1.441309452E0
1.975243847E1,-5.183446884E0,-6.746860504E0,-2.087743998E0
1.976244832E1,-5.319916248E0,-7.170634270E0,-2.616862535E0
1.977245809E1,-5.090072632E0,-7.455543995E0,-2.798821688E0
1.978243724E1,-4.857835293E0,-7.558494568E0,-2.549824715E0
1.979244709E1,-4.896142483E0,-7.572859764E0,-2.061407566E0
1.980245686E1,-5.075707436E0,-7.462726593E0,-1.625662923E0
1.981243601E1,-5.571307182E0,-7.472303391E0,-1.479616642E0
1.982244586E1,-6.423643112E0,-7.721300602E0,-1.728613615E0
1.983245563E1,-7.101202011E0,-8.039729118E0,-2.272097349E0
1.984243478E1,-7.570465565E0,-8.281543732E0,-2.863465309E0
1.985244463E1,-7.563282967E0,-8.291120529E0,-3.383007050E0
1.986245440E1,-7.450755596E0,-7.994239330E0,-3.653551817E0
1.987243355E1,-7.410054207E0,-7.632715225E0,-3.651157618E0
1.988244340E1,-7.517793179E0,-7.237671852E0,-3.366247654E0
1.989245317E1,-7.508216381E0,-6.732495308E0,-2.966415882E0
1.990243255E1,-7.319074631E0,-6.224924564E0,-2.875436306E0
1.991244216E1,-7.153874874E0,-5.789179802E0,-3.045424461E0
1.992245201E1,-7.031770229E0,-5.485116005E0,-3.529053211E0
1.993243132E1,-6.902483463E0,-5.260061264E0,-4.149151325E0
1.994244094E1,-6.845022678E0,-5.149928093E0,-4.647145271E0
1.995245070E1,-6.938396454E0,-5.178658485E0,-4.843470097E0
1.996243009E1,-7.216124058E0,-5.365406036E0,-4.752490520E0
1.997243970E1,-7.481880188E0,-5.688623428E0,-4.426878929E0
1.998244955E1,-7.733271599E0,-6.057330132E0,-3.955221176E0
1.999242863E1,-8.087613106E0,-6.430825710E0,-3.529053211E0
2.000243847E1,-8.501810074E0,-6.909666061E0,-3.308786631E0
2.001244832E1,-8.954314232E0,-7.350199223E0,-3.035847664E0
2.002245809E1,-9.418789864E0,-7.654263020E0,-2.597708941E0
2.003243724E1,-1.012986755E1,-7.802703381E0,-2.279279947E0
2.004244709E1,-1.112824917E1,-7.869740963E0,-1.994369984E0
2.005245686E1,-1.189200020E1,-7.805097580E0,-1.810016513E0
2.006243601E1,-1.282095051E1,-7.730877399E0,-1.673547029E0
2.007244586E1,-1.369962215E1,-7.568071365E0,-1.575384736E0
2.008245563E1,-1.448492050E1,-7.314286232E0,-1.561019540E0
2.009243478E1,-1.521275806E1,-6.818686485E0,-1.699883223E0
2.010244463E1,-1.575624180E1,-6.078877926E0,-1.975216389E0
2.011245440E1,-1.636915779E1,-5.135562420E0,-2.336740971E0
2.012243355E1,-1.689348793E1,-4.556165695E0,-2.726995707E0
2.013244340E1,-1.717839813E1,-4.228160381E0,-3.232172251E0
2.014245317E1,-1.738669205E1,-4.223371983E0,-4.031835556E0
2.015243232E1,-1.737951088E1,-4.402936935E0,-4.979939461E0
2.016244217E1,-1.720952225E1,-4.548983097E0,-5.853823185E0
2.017245201E1,-1.673546982E1,-4.699818134E0,-6.533776283E0
2.018243132E1,-1.582327938E1,-4.821922302E0,-6.991068840E0
2.019244094E1,-1.484883881E1,-4.912901878E0,-7.232883453E0
2.020245078E1,-1.364455509E1,-4.963180065E0,-7.127538681E0
2.021242986E1,-1.249294472E1,-4.821922302E0,-6.689399719E0
2.022243971E1,-1.157835960E1,-4.637568474E0,-5.966350555E0
2.023244955E1,-1.088643551E1,-4.441244125E0,-5.104437828E0
2.024242863E1,-1.035971069E1,-4.486733913E0,-4.522646904E0
2.025243847E1,-1.021605873E1,-4.862623692E0,-3.967192173E0
2.026244832E1,-1.029027843E1,-5.075707436E0,-3.402160645E0
2.027245809E1,-1.061349583E1,-5.322310448E0,-3.057395458E0
2.028243724E1,-1.113064384E1,-5.760449409E0,-2.882618904E0
2.029244709E1,-1.149695683E1,-6.076483727E0,-2.513911724E0
2.030245686E1,-1.177707863E1,-6.406883717E0,-2.169146776E0
2.031243601E1,-1.207156467E1,-6.861782074E0,-1.939303398E0
2.032244586E1,-1.213620853E1,-7.345410824E0,-1.788468719E0
