"Time (s)","Gyroscope x (rad/s)","Gyroscope y (rad/s)","Gyroscope z (rad/s)"
2.195376900E-2,1.588249654E-1,6.261368990E-1,8.521569967E-1
3.252923100E-2,1.588249654E-1,6.261368990E-1,8.521569967E-1
4.252330700E-2,1.588249654E-1,6.261368990E-1,8.521569967E-1
5.254884600E-2,1.588249654E-1,6.261368990E-1,8.521569967E-1
6.251253800E-2,-2.681698501E-1,-2.376265824E-1,-5.497787148E-3
7.253807700E-2,-4.037819207E-1,-4.123340547E-1,-2.382374369E-2
8.253253800E-2,-4.459316432E-1,-5.082398653E-1,-4.703662544E-2
9.252738500E-2,-4.453207552E-1,-5.516113043E-1,-7.574728876E-2
1.025212310E-1,-4.025602043E-1,-5.467243791E-1,-1.026253626E-1
1.125519230E-1,-3.347541690E-1,-5.070181489E-1,-1.075122803E-1
1.225104610E-1,-2.608394623E-1,-4.465425014E-1,-7.452555746E-2
1.325409230E-1,-1.966986060E-1,-3.946189582E-1,-5.497787148E-3
1.425300770E-1,-1.624901593E-1,-3.756821156E-1,9.773843735E-2
1.525300770E-1,-1.539380401E-1,-3.909537494E-1,2.009746730E-1
1.625190770E-1,-1.649336219E-1,-4.624249935E-1,2.693915665E-1
1.725495390E-1,-1.942551434E-1,-5.876523852E-1,2.828305960E-1
1.825080000E-1,-2.474004179E-1,-7.275404930E-1,2.590068579E-1
1.925384620E-1,-3.188716471E-1,-8.362745047E-1,2.101376504E-1
2.025276160E-1,-4.153883755E-1,-8.741481900E-1,1.472185254E-1
2.125276920E-1,-5.161811113E-1,-8.552113175E-1,8.185594529E-2
2.225165390E-1,-6.035348773E-1,-8.002334833E-1,3.298672289E-2
2.325470000E-1,-6.603453159E-1,-7.446447611E-1,2.076941915E-2
2.425055390E-1,-6.817256212E-1,-7.409795523E-1,5.009094998E-2
2.525362310E-1,-6.640105247E-1,-7.617489696E-1,1.123992056E-1
2.625251540E-1,-6.243042946E-1,-8.429940343E-1,1.881465018E-1
2.725559230E-1,-5.900958180E-1,-9.841039181E-1,2.547308207E-1
2.825141540E-1,-5.424483418E-1,-1.028697014E0,2.535090744E-1
2.925448470E-1,-5.119050741E-1,-1.034805775E0,1.808161139E-1
3.025337700E-1,-5.229006410E-1,-1.022588372E0,9.224065393E-2
3.125335390E-1,-5.674937963E-1,-9.877691269E-1,1.954768784E-2
3.225226930E-1,-6.462954283E-1,-9.834930301E-1,-3.359758854E-2
3.325532310E-1,-7.531968355E-1,-1.032973170E0,-7.391469181E-2
3.425116930E-1,-8.735373020E-1,-1.054353356E0,-1.221730486E-1
3.525423850E-1,-9.865473509E-1,-1.026864529E0,-1.576032341E-1
3.625313080E-1,-1.120937705E0,-9.694431424E-1,-1.789835095E-1
3.725313080E-1,-1.221730471E0,-9.724974632E-1,-1.667662114E-1
3.825202310E-1,-1.319468975E0,-9.639453292E-1,-1.386664063E-1
3.925507700E-1,-1.423926830E0,-1.010371089E0,-8.246681094E-2
4.025092310E-1,-1.450194120E0,-9.902125597E-1,-2.138028294E-2
4.125399240E-1,-1.389107585E0,-9.217956662E-1,2.932153270E-2
4.225288470E-1,-1.272432327E0,-8.503243923E-1,7.330382615E-2
4.325295390E-1,-1.134376764E0,-8.503243923E-1,5.192354694E-2
4.425178470E-1,-1.001819015E0,-8.784242272E-1,-7.391469181E-2
4.525486160E-1,-9.034696817E-1,-8.594874144E-1,-9.468411654E-2
4.625070010E-1,-8.228355050E-1,-8.961393237E-1,-4.092797264E-2
4.725374620E-1,-7.867944241E-1,-1.154535294E0,2.321287990E-2
4.825263850E-1,-7.104362845E-1,-1.547321677E0,1.197295859E-1
4.925264620E-1,-5.357288122E-1,-1.943773150E0,2.156354338E-1
5.025153850E-1,-3.310889602E-1,-2.429411173E0,3.200933933E-1
5.125470780E-1,-1.166752651E-1,-2.986520290E0,4.105014503E-1
5.225350780E-1,9.529497474E-2,-3.548516273E0,4.685336351E-1
5.325363090E-1,3.176499307E-1,-4.043928146E0,4.954117239E-1
5.425240010E-1,5.797111392E-1,-4.395786285E0,4.685336351E-1
5.525544630E-1,8.741481900E-1,-4.536285400E0,3.426954150E-1
5.625129240E-1,1.278540969E0,-4.243680954E0,3.359758854E-2
5.725436930E-1,1.808161139E0,-3.007900476E0,-4.306600094E-1
5.825325400E-1,2.073887587E0,2.620611787E-1,-7.147123218E-1
5.925368470E-1,1.651168704E0,3.403130293E0,-4.917465150E-1
6.025214630E-1,9.474520087E-1,4.560719967E0,-1.618792862E-1
6.125565400E-1,9.407325089E-2,3.577226877E0,-1.081231460E-1
6.225104630E-1,-4.789183438E-1,2.942537785E0,-4.447098970E-1
6.325418470E-1,-5.962044597E-1,1.196684957E0,-9.260717034E-1
6.425300780E-1,-4.935791194E-1,5.375614166E-1,-9.285151958E-1
6.525301550E-1,-1.759291887E-1,1.404990107E-1,-3.249803185E-1
6.625190780E-1,1.722639948E-1,2.883284092E-1,-2.993239649E-2
6.725503860E-1,6.487388611E-1,8.075638413E-1,6.719517708E-2
6.825082320E-1,1.197295904E0,1.346346974E0,-2.382374369E-2
6.925396170E-1,1.642616630E0,1.615127683E0,-1.154535338E-1
7.025276940E-1,1.860084653E0,1.698205352E0,-6.169738993E-2
7.125298480E-1,1.869247675E0,2.021353006E0,5.235115290E-1
7.225166170E-1,1.814880610E0,2.185065031E0,1.296866894E0
7.325495400E-1,1.739133358E0,2.341446400E0,1.916895151E0
7.425057710E-1,1.661553502E0,2.386650562E0,2.402533054E0
7.525363090E-1,1.547932506E0,2.539977789E0,2.772106409E0
7.625251550E-1,1.389718413E0,2.711019993E0,3.032335043E0
7.725587710E-1,1.155757070E0,2.594955444E0,3.162449360E0
7.825141550E-1,7.214318514E-1,1.819767594E0,3.064100027E0
7.925479250E-1,3.396410644E-1,1.514334917E0,2.809980154E0
8.025337710E-1,-6.108652451E-4,1.456913590E0,2.441628456E0
8.125362320E-1,-2.266310006E-1,1.842980504E0,1.981646895E0
8.225227710E-1,-2.840523422E-1,1.970040441E0,1.384831548E0
8.325553860E-1,-1.808161139E-1,1.511891484E0,6.206390858E-1
8.425116940E-1,2.443460934E-2,1.207069755E0,-1.154535338E-1
8.525452320E-1,1.881465018E-1,1.312138557E0,-5.894849896E-1
8.625313090E-1,2.785545588E-1,1.646281838E0,-7.153232098E-1
8.725334630E-1,3.084869385E-1,2.072054863E0,-6.041457057E-1
8.825205400E-1,3.604104817E-1,2.702467918E0,-4.007275999E-1
8.925537710E-1,4.746423066E-1,3.416569233E0,-2.565633953E-1
9.025094630E-1,6.579018831E-1,4.183205128E0,-3.036000133E-1
9.125426940E-1,9.156870246E-1,4.889365196E0,-5.082398653E-1
9.225288480E-1,1.153313637E0,5.342627525E0,-7.318165898E-1
9.325292330E-1,1.288314819E0,5.648671150E0,-8.753699064E-1
9.425178480E-1,1.381777167E0,6.087882996E0,-9.847147465E-1
9.525483100E-1,1.472796082E0,6.467230320E0,-1.086118460E0
9.625070020E-1,1.648725271E0,6.913161755E0,-1.280984402E0
9.725396940E-1,1.869858503E0,7.363369465E0,-1.539380431E0
9.825254640E-1,2.034181356E0,7.674911022E0,-1.811826348E0
9.925258480E-1,2.095878601E0,7.716449738E0,-2.101376534E0
1.002515002E0,2.038457394E0,7.442781925E0,-2.442850113E0
1.012545233E0,1.859473825E0,7.006013393E0,-2.743395805E0
1.022534387E0,1.653612256E0,6.550308228E0,-2.806314945E0
1.032534464E0,1.550375938E0,6.075054646E0,-2.883894920E0
1.042523387E0,1.423316002E0,5.702426910E0,-2.916270733E0
1.052554079E0,1.403157473E0,5.305364609E0,-2.951700926E0
1.062512541E0,1.425759435E0,4.801400661E0,-3.015230894E0
1.072543002E0,1.384220600E0,4.387845039E0,-3.098919392E0
1.082532541E0,1.361618638E0,4.157548904E0,-3.285233259E0
1.092534772E0,1.378722906E0,3.983452320E0,-3.651141644E0
1.102521464E0,1.391551018E0,3.797749281E0,-4.039041042E0
1.112552310E0,1.472185254E0,3.557679176E0,-4.269337177E0
1.122510464E0,1.544267297E0,3.344487190E0,-4.362799644E0
1.132541464E0,1.562593341E0,3.097086906E0,-4.484972477E0
1.142530079E0,1.536936998E0,2.738508940E0,-4.697553635E0
1.152530387E0,1.464854836E0,2.350609541E0,-4.926017284E0
1.162519079E0,1.371392488E0,1.968818665E0,-5.136155128E0
1.172550079E0,1.257160664E0,1.591914773E0,-5.304142952E0
1.182508233E0,1.125213742E0,1.220508814E0,-5.361564159E0
1.192538772E0,9.987646937E-1,9.291260242E-1,-5.285817146E0
1.202527618E0,9.114109278E-1,6.914994717E-1,-5.142263412E0
1.212527926E0,8.503243923E-1,5.253441334E-1,-4.930293560E0
1.222516618E0,8.051204085E-1,3.903428912E-1,-4.596760750E0
1.232547387E0,6.988298297E-1,2.932153046E-1,-3.907094002E0
1.242505772E0,5.632177591E-1,3.255911767E-1,-3.400686741E0
1.252536310E0,3.946189582E-1,3.756821156E-1,-2.912605524E0
1.262525157E0,2.131919712E-1,4.013384581E-1,-2.459954262E0
1.272555926E0,3.604105115E-2,4.056145251E-1,-2.061059237E0
1.282514157E0,-1.185078546E-1,3.341432810E-1,-1.731192112E0
1.292545157E0,-2.394591719E-1,2.064724565E-1,-1.470963478E0
1.302533772E0,-3.176499307E-1,2.321287990E-2,-1.299921274E0
1.312534080E0,-3.848451078E-1,-1.973094791E-1,-1.210124016E0
1.322522772E0,-4.605923891E-1,-4.007275999E-1,-1.174693823E0
1.332553541E0,-5.424483418E-1,-5.400048494E-1,-1.171028733E0
1.342511695E0,-6.200281978E-1,-6.743952036E-1,-1.191187263E0
1.352544618E0,-6.914994717E-1,-7.880161405E-1,-1.227839112E0
1.362531311E0,-7.623597980E-1,-8.668177724E-1,-1.268156290E0
1.372533772E0,-8.167268038E-1,-9.205739498E-1,-1.304197311E0
1.382520234E0,-8.442157507E-1,-9.303477407E-1,-1.330464482E0
1.392553157E0,-8.521569967E-1,-9.138544202E-1,-1.339627504E0
1.402509234E0,-8.552113175E-1,-8.668177724E-1,-1.342070937E0
1.412573157E0,-8.588765264E-1,-7.715228200E-1,-1.362840414E0
1.422528849E0,-8.820894361E-1,-6.774495840E-1,-1.385442376E0
1.432528926E0,-9.303477407E-1,-6.175847650E-1,-1.403768301E0
1.442517849E0,-9.896016717E-1,-5.907067060E-1,-1.423926830E0
1.452548542E0,-1.030529618E0,-6.291912198E-1,-1.401935697E0
1.462506772E0,-1.047023058E0,-7.263187766E-1,-1.301142931E0
1.472537542E0,-1.056796908E0,-8.827002645E-1,-1.112996459E0
1.482526388E0,-1.102000952E0,-1.040303469E0,-8.631525636E-1
1.492526465E0,-1.212567568E0,-1.123992085E0,-5.870414972E-1
1.502515388E0,-1.356731653E0,-1.133154988E0,-3.152064681E-1
1.512545849E0,-1.489900351E0,-1.160033107E0,3.115412779E-2
1.522535003E0,-1.484402537E0,-1.207069755E0,2.211332172E-1
1.532535080E0,-1.417818189E0,-1.262047648E0,4.361577928E-1
1.542524003E0,-1.315803766E0,-1.324966669E0,7.116580009E-1
1.552554696E0,-1.183856845E0,-1.407433510E0,1.040914416E0
1.562512926E0,-1.050077319E0,-1.453248382E0,1.371392488E0
1.572543619E0,-9.535606503E-1,-1.423926830E0,1.685988069E0
1.582532542E0,-8.729264140E-1,-1.363451242E0,1.997529387E0
1.592532850E0,-7.977899909E-1,-1.310305953E0,2.290744781E0
1.602521465E0,-7.195992470E-1,-1.263880134E0,2.532647371E0
1.612584927E0,-6.285803318E-1,-1.208902359E0,2.709187269E0
1.622510465E0,-5.082398653E-1,-1.156978726E0,2.830749512E0
1.632543311E0,-3.585779071E-1,-1.105055213E0,2.911383867E0
1.642530081E0,-1.808161139E-1,-1.005484223E0,2.954144239E0
1.652532619E0,2.932153270E-2,-8.814785480E-1,3.003624439E0
1.662519081E0,2.474004179E-1,-7.568620443E-1,3.099530220E0
1.672552004E0,4.825835526E-1,-6.530149579E-1,3.255300999E0
1.682508004E0,6.487388611E-1,-1.826487035E-1,3.413515091E0
1.692540927E0,8.765916228E-1,1.722639948E-1,3.438560486E0
1.702527619E0,1.116661668E0,3.365867436E-1,3.396410704E0
1.712530081E0,1.350012183E0,6.707300544E-1,3.392745495E0
1.722516619E0,1.554041147E0,9.443976879E-1,3.375641346E0
1.732549542E0,1.682933807E0,1.034194827E0,3.316387415E0
1.742505773E0,1.761735320E0,1.019534111E0,3.251024723E0
1.752536312E0,1.788002610E0,1.202182770E0,3.188716650E0
1.762525158E0,1.806328535E0,1.582751870E0,3.081204414E0
1.772556004E0,1.890017033E0,1.865582466E0,2.915659904E0
1.782514158E0,2.023796558E0,1.924836397E0,2.714074373E0
1.792544927E0,2.144136906E0,1.889406204E0,2.475225925E0
1.802533773E0,2.184454203E0,1.759291887E0,2.001805305E0
1.812533850E0,2.132530689E0,1.683544636E0,1.625512362E0
1.822522773E0,2.078163624E0,1.544878244E0,1.207680583E0
1.832553235E0,2.034181356E0,1.320690632E0,7.654141784E-1
1.842511696E0,1.965764403E0,1.044579625E0,3.451388776E-1
1.852544543E0,1.851532578E0,7.293730974E-1,-4.153883830E-2
1.862531312E0,1.693318486E0,3.946189582E-1,-3.927863538E-1
1.872533466E0,1.505782843E0,1.295034289E-1,-7.079927921E-1
1.882520312E0,1.301142931E0,-5.681046844E-2,-9.981538057E-1
1.892555389E0,1.076955438E0,-2.119702399E-1,-1.269988894E0
1.902509466E0,8.374962807E-1,-3.762930036E-1,-1.528384805E0
1.912544312E0,5.766568184E-1,-5.632177591E-1,-1.780061364E0
1.922528927E0,2.883284092E-1,-7.757988572E-1,-2.029294252E0
1.932533543E0,-1.649336144E-2,-1.004262447E0,-2.280970812E0
1.942517850E0,-3.103195429E-1,-1.213178396E0,-2.558303595E0
1.952550774E0,-5.736024380E-1,-1.398881435E0,-2.836858273E0
1.962507004E0,-7.898487449E-1,-1.542434692E0,-3.083647728E0
1.972539927E0,-9.651671052E-1,-1.632231951E0,-3.277902842E0
1.982525466E0,-1.111774802E0,-1.693318486E0,-3.404351950E0
1.992528235E0,-1.213789225E0,-1.759902716E0,-3.458108187E0
2.002514774E0,-1.247386813E0,-1.819156647E0,-3.480099201E0
2.012547928E0,-1.181413412E0,-1.842980504E0,-3.505755663E0
2.022534389E0,-1.014036298E0,-1.836260915E0,-3.511253357E0
2.032536620E0,-8.155050874E-1,-1.802663326E0,-3.459329844E0
2.042523389E0,-6.328563690E-1,-1.727526903E0,-3.296839714E0
2.052556312E0,-4.911356568E-1,-1.607797384E0,-3.020117760E0
2.062512543E0,-4.007275999E-1,-1.445307136E0,-2.689639568E0
2.072545235E0,-3.225368559E-1,-1.240667343E0,-2.387261391E0
2.082532543E0,-1.991420686E-1,-1.003040791E0,-2.158797741E0
2.092534774E0,7.024950534E-2,-5.326744914E-1,-1.981035948E0
2.102521466E0,2.651155293E-1,-1.282816976E-1,-1.941940665E0
2.112554389E0,4.502076805E-1,3.213151097E-1,-1.950492740E0
2.122510466E0,6.230825782E-1,7.367035151E-1,-1.961488247E0
2.132543697E0,7.586946487E-1,1.056185961E0,-1.925447226E0
2.142530082E0,8.539896011E-1,1.257771492E0,-1.820989251E0
2.152532312E0,9.254608750E-1,1.312138557E0,-1.660331726E0
2.162519082E0,9.883799553E-1,1.246165156E0,-1.463022232E0
2.172549851E0,1.056796908E0,1.111774802E0,-1.243721604E0
2.182508005E0,1.125824690E0,9.370672703E-1,-1.032973170E0
2.192538774E0,1.169196129E0,7.635815740E-1,-8.429940343E-1
2.202527620E0,1.178969979E0,6.120869517E-1,-6.731734872E-1
2.212527928E0,1.156978726E0,4.685336351E-1,-5.082398653E-1
2.222516620E0,1.119105101E0,3.439171314E-1,-3.445279896E-1
2.232547313E0,1.086729288E0,2.736676335E-1,-2.144137025E-1
2.242505774E0,1.052520871E0,2.724458873E-1,-1.417207420E-1
2.252538390E0,1.002429843E0,3.323107064E-1,-1.014036313E-1
2.262525159E0,9.309586287E-1,4.257730842E-1,-7.513642311E-2
2.272557774E0,8.460483551E-1,5.589417219E-1,-6.169738993E-2
2.282514159E0,7.470881939E-1,7.128797174E-1,-6.658431143E-2
2.292547005E0,6.218608022E-1,8.613200188E-1,-6.719517708E-2
2.302533774E0,4.605923891E-1,9.871582389E-1,-5.681046844E-2
2.312536005E0,2.712241709E-1,1.093448758E0,-3.909537569E-2
2.322522774E0,8.063421398E-2,1.149037480E0,1.221730490E-3
2.332555390E0,-8.552113175E-2,1.145372391E0,5.497787148E-2
2.342511698E0,-2.364048511E-1,1.096503139E0,1.105666086E-1
2.352544544E0,-3.842342496E-1,1.022588372E0,1.704314053E-1
2.362531313E0,-5.265658498E-1,9.462302923E-1,2.486221492E-1
2.372533775E0,-6.548475623E-1,8.503243923E-1,3.469714522E-1
2.382520236E0,-8.295549750E-1,6.878342628E-1,4.941899776E-1
2.392552852E0,-9.419541955E-1,5.662720799E-1,5.827654600E-1
2.402509467E0,-1.065348983E0,3.940080702E-1,6.756169796E-1
2.412542082E0,-1.221119642E0,2.009746730E-1,7.599163651E-1
2.422528852E0,-1.420872569E0,-3.665191587E-3,8.283332586E-1
2.432531005E0,-1.649947047E0,-2.217440903E-1,8.478809595E-1
2.442517852E0,-1.879632354E0,-4.783074856E-1,8.222246170E-1
2.452550698E0,-2.079385281E0,-7.812966704E-1,7.605272532E-1
2.462506775E0,-2.219273329E0,-1.136820197E0,6.499606371E-1
2.472539621E0,-2.276083946E0,-1.530217409E0,4.984660447E-1
2.482526390E0,-2.224771261E0,-1.876578093E0,3.341432810E-1
2.492528852E0,-2.040900707E0,-2.187508345E0,1.661553532E-1
2.502515390E0,-1.729970336E0,-2.415971994E0,4.764748737E-2
2.512548236E0,-1.339627504E0,-2.502714872E0,2.504547499E-2
2.522535006E0,-9.199630618E-1,-2.447736979E0,1.264491081E-1
2.532537236E0,-4.911356568E-1,-2.226603746E0,3.054326177E-1
2.542523929E0,-1.130100712E-1,-1.842369556E0,5.198463202E-1
2.552556852E0,1.582140923E-1,-1.319468975E0,7.666358948E-1
2.562512929E0,3.029891551E-1,-7.501425147E-1,1.050077319E0
2.572545852E0,3.665191531E-1,-2.944370508E-1,1.335962296E0
2.582532621E0,3.671300113E-1,-3.054326214E-2,1.585195303E0
2.592534775E0,3.255911767E-1,1.380555481E-1,1.791667819E0
2.602521467E0,2.852740586E-1,2.101376504E-1,1.899790883E0
2.612552314E0,2.669481039E-1,2.168571651E-1,1.853365183E0
2.622510467E0,2.431243658E-1,1.496619880E-1,1.648725271E0
2.632541852E0,2.034181207E-1,1.527163107E-2,1.339016676E0
2.642530083E0,1.667662114E-1,-1.783726513E-1,9.938777685E-1
2.652531006E0,1.313360333E-1,-3.903428912E-1,6.444628239E-1
2.662519083E0,8.246681094E-2,-5.766568184E-1,3.109304011E-1
2.672552621E0,-2.565634064E-2,-7.861835957E-1,-1.117883399E-1
2.682508006E0,-1.154535338E-1,-8.680394888E-1,-3.255911767E-1
2.692541545E0,-2.058615834E-1,-9.144652486E-1,-5.186246037E-1
2.702527621E0,-2.895501256E-1,-9.022479653E-1,-7.147123218E-1
2.712527698E0,-3.769038618E-1,-8.692612648E-1,-8.839219809E-1
2.722516622E0,-4.721988440E-1,-8.558222055E-1,-1.010371089E0
2.732547622E0,-5.797111392E-1,-8.607091308E-1,-1.111163855E0
2.742505775E0,-6.945537925E-1,-8.772025108E-1,-1.213789225E0
2.752536545E0,-7.971791625E-1,-8.906415105E-1,-1.310305953E0
2.762525237E0,-8.619308472E-1,-8.784242272E-1,-1.381777167E0
2.772558160E0,-8.686503768E-1,-8.228355050E-1,-1.426981211E0
2.782514160E0,-8.185594082E-1,-7.354817390E-1,-1.451415777E0
2.792547083E0,-7.165449262E-1,-6.224716902E-1,-1.467298269E0
2.802533853E0,-5.797111392E-1,-5.033529401E-1,-1.481959105E0
2.812536237E0,-4.214970171E-1,-3.744603992E-1,-1.497841597E0
2.822522776E0,-2.486221492E-1,-2.412917763E-1,-1.526552200E0
2.832555622E0,-7.269296050E-2,-1.069014147E-1,-1.584584475E0
2.842511699E0,9.224065393E-2,2.871066704E-2,-1.659720898E0
2.852544930E0,2.370157093E-1,1.447750628E-1,-1.725083470E0
2.862531314E0,3.610213697E-1,2.333505303E-1,-1.766011477E0
2.872533545E0,4.593706727E-1,3.249803185E-1,-1.775785327E0
2.882520314E0,5.302310586E-1,3.830125034E-1,-1.734857321E0
2.892553237E0,5.766568184E-1,3.866777122E-1,-1.643227458E0
2.902509468E0,6.004805565E-1,3.714060783E-1,-1.522276163E0
2.912542160E0,6.157521605E-1,3.775147200E-1,-1.391551018E0
2.922528930E0,6.298020482E-1,3.964515328E-1,-1.266323686E0
2.932531391E0,6.175847650E-1,4.129449129E-1,-1.147815824E0
2.942518084E0,5.558874011E-1,4.019493461E-1,-1.026253581E0
2.952548622E0,4.581489265E-1,3.488040566E-1,-9.059131742E-1
2.962507007E0,2.736676335E-1,1.368338168E-1,-7.354817390E-1
2.972537853E0,1.649336219E-1,-4.764748737E-2,-6.139195561E-1
2.982525468E0,7.696902007E-2,-2.382374406E-1,-4.813618064E-1
2.992526084E0,0.000000000E0,-4.208861589E-1,-3.353650272E-1
3.002514776E0,-5.192354694E-2,-5.699372888E-1,-1.850921661E-1
3.012545545E0,-6.780604273E-2,-6.328563690E-1,-2.626720630E-2
3.022534391E0,-4.337143153E-2,-5.815436840E-1,1.447750628E-1
3.032534699E0,-2.443460980E-3,-4.214970171E-1,3.335324228E-1
3.042523392E0,4.825835302E-2,-1.624901593E-1,5.265658498E-1
3.052554084E0,1.056796908E-1,1.588249654E-1,7.165449262E-1
3.062512545E0,1.643227488E-1,5.277875662E-1,9.083566070E-1
3.072545238E0,2.028072625E-1,9.169087410E-1,1.093448758E0
3.082532545E0,2.156354338E-1,1.286482215E0,1.254717231E0
3.092534776E0,1.912008226E-1,1.587638736E0,1.392161846E0
3.102521469E0,1.307251602E-1,1.798998117E0,1.514945865E0
3.112554161E0,4.886921868E-2,1.893682241E0,1.621236324E0
3.122510699E0,-4.031710699E-2,1.843591332E0,1.706146598E0
3.132543315E0,-1.466076523E-1,1.700648785E0,1.777006984E0
3.142530084E0,-2.541199327E-1,1.530828357E0,1.849089146E0
3.152532546E0,-3.249803185E-1,1.306029916E0,1.923003793E0
3.162519084E0,-3.769038618E-1,1.087950945E0,1.985312104E0
3.172552007E0,-4.221078753E-1,9.120218158E-1,2.021964073E0
3.182508007E0,-4.544837475E-1,7.605272532E-1,2.040900707E0
3.192540853E0,-4.813618064E-1,6.377432942E-1,2.043344259E0
3.202527623E0,-4.862487316E-1,5.510004759E-1,2.065335512E0
3.212530161E0,-4.630358517E-1,5.351179838E-1,2.110539436E0
3.222516623E0,-4.105014503E-1,6.169738770E-1,2.153910875E0
3.232547392E0,-3.622430861E-1,9.608910084E-1,2.111150265E0
3.242505777E0,-2.987131178E-1,1.048244715E0,1.963931799E0
3.252538700E0,-3.207042515E-1,1.317636371E0,1.740355134E0
3.262525161E0,-3.927863538E-1,1.303586483E0,1.580919266E0
3.272558084E0,-4.789183438E-1,1.238223910E0,1.433089852E0
3.282514161E0,-5.638286471E-1,1.131933331E0,1.249830246E0
3.292547315E0,-6.365215778E-1,1.003040791E0,1.050077319E0
3.302533854E0,-6.945537925E-1,8.735373020E-1,8.570439219E-1
3.312535700E0,-7.470881939E-1,7.104362845E-1,6.750060916E-1
3.322522777E0,-8.038986921E-1,5.528330207E-1,5.222898126E-1
3.332555700E0,-8.442157507E-1,4.074471295E-1,4.080579877E-1
3.342511700E0,-8.503243923E-1,2.761110961E-1,3.152064681E-1
3.352544315E0,-8.319984674E-1,1.783726513E-1,2.449569702E-1
3.362531315E0,-7.916813493E-1,7.513642311E-2,2.278527319E-1
3.372533469E0,-7.574729323E-1,-2.932153270E-2,2.419026345E-1
3.382520238E0,-7.654141784E-1,-1.105666086E-1,2.565633953E-1
3.392553162E0,-8.008443117E-1,-2.058615834E-1,2.590068579E-1
3.402509239E0,-8.356636763E-1,-3.274237812E-1,2.321287990E-1
3.412542085E0,-8.668177724E-1,-4.416555762E-1,1.844813079E-1
3.422528854E0,-8.802568316E-1,-5.644394755E-1,1.123992056E-1
3.432528854E0,-8.362745047E-1,-6.835582256E-1,4.276056774E-3
3.442517854E0,-7.305948138E-1,-8.020660877E-1,-1.014036313E-1
3.452548546E0,-5.760459304E-1,-8.979719281E-1,-1.979203373E-1
3.462506777E0,-3.885102868E-1,-9.517280459E-1,-3.378084898E-1
3.472537469E0,-1.960877478E-1,-9.547823668E-1,-5.412266254E-1
3.482526470E0,-6.108652451E-4,-9.230173826E-1,-7.843509912E-1
3.492526470E0,2.199114859E-1,-8.863654733E-1,-1.035416603E0
3.502515393E0,4.618141353E-1,-8.539896011E-1,-1.273043156E0
3.512546162E0,7.177666426E-1,-8.338310719E-1,-1.474017859E0
3.522535008E0,9.743300676E-1,-8.222246170E-1,-1.583973527E0
3.532537470E0,1.208902359E0,-8.436049223E-1,-1.599856019E0
3.542524008E0,1.422094345E0,-8.704829812E-1,-1.498452425E0
3.552556931E0,1.453248382E0,-8.570439219E-1,-1.390940189E0
3.562512931E0,1.414763927E0,-8.356636763E-1,-1.291980028E0
3.572543700E0,1.323134065E0,-7.867944241E-1,-1.240056396E0
3.582532547E0,1.207680583E0,-7.116580009E-1,-1.249219418E0
3.592532624E0,1.099557400E0,-6.395758986E-1,-1.312749386E0
3.602521470E0,1.020144939E0,-5.607742667E-1,-1.426981211E0
3.612584931E0,9.700540304E-1,-4.740314186E-1,-1.582751870E0
3.622510470E0,9.523389339E-1,-3.793473244E-1,-1.754405022E0
3.632543393E0,9.822713137E-1,-3.078760803E-1,-1.918727756E0
3.642530085E0,1.044579625E0,-2.651155293E-1,-2.069000483E0
3.652532547E0,1.112385631E0,-2.339613885E-1,-2.193006277E0
3.662519316E0,1.155757070E0,-2.522873580E-1,-2.262644768E0
3.672551931E0,1.165530920E0,-2.962696552E-1,-2.258368731E0
3.682508008E0,1.131322384E0,-3.659082949E-1,-2.152689219E0
3.692539008E0,1.050077319E0,-4.343251884E-1,-1.960877419E0
3.702527624E0,9.260717034E-1,-4.789183438E-1,-1.746463776E0
3.712527701E0,7.880161405E-1,-5.186246037E-1,-1.554041147E0
3.722516624E0,6.322455406E-1,-5.418374538E-1,-1.409876943E0
3.732549547E0,4.489859641E-1,-5.436700583E-1,-1.315192819E0
3.742505778E0,2.535090744E-1,-5.094616413E-1,-1.301753879E0
3.752538701E0,5.742133409E-2,-4.807509482E-1,-1.369559884E0
3.762525162E0,-1.258382350E-1,-4.587597847E-1,-1.452637553E0
3.772558163E0,-2.803871334E-1,-4.239404798E-1,-1.514334917E0
3.782514163E0,-3.860668242E-1,-4.379903674E-1,-1.545489073E0
3.792547086E0,-4.471533597E-1,-4.990769029E-1,-1.536326051E0
3.802533855E0,-4.673119187E-1,-5.931501389E-1,-1.511891484E0
3.812534163E0,-4.563163519E-1,-6.939429045E-1,-1.467298269E0
3.822522778E0,-4.208861589E-1,-7.635815740E-1,-1.398881435E0
3.832553470E0,-3.170390725E-1,-7.977899909E-1,-1.211345792E0
3.842511932E0,-2.131919712E-1,-7.696902156E-1,-1.032362223E0
3.852542470E0,-9.346238524E-2,-7.000515461E-1,-8.069530129E-1
3.862531317E0,1.649336144E-2,-5.821545720E-1,-5.479460955E-1
3.872531394E0,1.020144969E-1,-4.105014503E-1,-2.687807083E-1
3.882520317E0,1.600466967E-1,-2.119702399E-1,1.649336144E-2
3.892551086E0,1.698205322E-1,3.298672289E-2,2.516764700E-1
3.902509240E0,1.111774743E-1,2.541199327E-1,4.355469346E-1
3.912540009E0,-3.054326167E-3,3.805690408E-1,5.980370641E-1
3.922528855E0,-1.490511149E-1,4.239404798E-1,7.312057018E-1
3.932531624E0,-2.974913716E-1,3.909537494E-1,8.332201838E-1
3.942517855E0,-4.288274050E-1,2.981022298E-1,9.437867999E-1
3.952550778E0,-5.192354321E-1,2.773328125E-1,1.065348983E0
3.962507009E0,-5.033529401E-1,3.011565804E-1,1.178969979E0
3.972539932E0,-3.604104817E-1,3.213151097E-1,1.263269305E0
3.982525471E0,-1.459967941E-1,3.970624208E-1,1.328021049E0
3.992528317E0,8.307767659E-2,5.955936313E-1,1.383609772E0
4.002514778E0,3.274237812E-1,8.814785480E-1,1.436144233E0
4.012547932E0,5.778785348E-1,1.268767118E0,1.500895858E0
4.022534471E0,8.100073338E-1,1.732413888E0,1.619403720E0
4.032536625E0,1.026864529E0,2.293798923E0,1.803274155E0
4.042523394E0,1.232115149E0,2.901609898E0,1.992031574E0
4.052556317E0,1.400714040E0,3.466049433E0,2.160630465E0
4.062512548E0,1.487456918E0,3.952908993E0,2.320677042E0
4.072545163E0,1.486235142E0,4.359134197E0,2.459343433E0
4.082532548E0,1.452637553E0,4.643797398E0,2.535090685E0
4.092534702E0,1.397659659E0,4.803844452E0,2.525316954E0
4.102521471E0,1.318247199E0,4.866152763E0,2.451402187E0
4.112554394E0,1.218065262E0,4.779409885E0,2.323120594E0
4.122510471E0,1.003651619E0,4.442822933E0,2.063502789E0
4.132543317E0,7.941248417E-1,4.051869392E0,1.909564734E0
4.142530086E0,5.088507533E-1,3.616322279E0,1.786780834E0
4.152532317E0,1.875356287E-1,3.171612263E0,1.652390480E0
4.162519087E0,-1.288925707E-1,2.644435644E0,1.530828357E0
4.172551933E0,-4.043927789E-1,2.111761093E0,1.439809442E0
4.182508010E0,-6.469063163E-1,1.638951421E0,1.332297087E0
4.192540856E0,-8.692612648E-1,1.217454433E0,1.214400053E0
4.202527702E0,-1.075122833E0,7.953465581E-1,1.103222609E0
4.212529856E0,-1.271821499E0,4.166100919E-1,1.007927656E0
4.222516625E0,-1.440420270E0,8.735372871E-2,9.694431424E-1
4.232549471E0,-1.590082288E0,-5.131268129E-2,1.005484223E0
4.242505779E0,-1.700037956E0,-1.392772794E-1,1.064127207E0
4.252538394E0,-1.762346268E0,-2.229658216E-1,1.150870085E0
4.262525164E0,-1.801441550E0,-2.412917763E-1,1.280373573E0
4.272557856E0,-1.830152273E0,-2.602286041E-1,1.423926830E0
4.282514164E0,-1.850310802E0,-2.852740586E-1,1.562593341E0
4.292547087E0,-1.872912884E0,-3.182607889E-1,1.665829539E0
4.302533779E0,-1.901012659E0,-3.714060783E-1,1.705535769E0
4.312535933E0,-1.918727756E0,-4.465425014E-1,1.695761919E0
4.322522779E0,-1.923614621E0,-5.357288122E-1,1.630399346E0
4.332553472E0,-1.908343077E0,-6.310238242E-1,1.503339410E0
4.342511702E0,-1.884519339E0,-7.415903807E-1,1.329853654E0
4.352542472E0,-1.875356317E0,-8.881980777E-1,1.137431145E0
4.362531318E0,-1.886962771E0,-1.075733662E0,9.498954415E-1
4.372531395E0,-1.912619114E0,-1.269988894E0,7.690793276E-1
4.382520318E0,-1.958433986E0,-1.466687441E0,5.882632136E-1
4.392550779E0,-2.013411760E0,-1.674381614E0,4.025602043E-1
4.402509241E0,-2.048231125E0,-1.871691108E0,1.973094791E-1
4.412540010E0,-2.023796558E0,-2.130087137E0,-1.704314053E-1
4.422528856E0,-1.927890658E0,-2.281581640E0,-4.422664344E-1
4.432528626E0,-1.758070230E0,-2.389093876E0,-7.617489696E-1
4.442517856E0,-1.524108768E0,-2.454456568E0,-1.128878951E0
4.452549164E0,-1.222341299E0,-2.500882387E0,-1.518610954E0
4.462506780E0,-8.387179971E-1,-2.518597364E0,-1.891238809E0
4.472537549E0,-3.891211748E-1,-2.514932156E0,-2.189951897E0
4.482526395E0,9.896016866E-2,-2.536923409E0,-2.368324518E0
4.492528626E0,5.864306092E-1,-2.568077564E0,-2.453845739E0
4.502515395E0,1.040303469E0,-2.546697140E0,-2.472782612E0
4.512548010E0,1.433700681E0,-2.454456568E0,-2.409252644E0
4.522535010E0,1.748907208E0,-2.280359983E0,-2.264477491E0
4.532537241E0,1.977370739E0,-2.007303238E0,-2.066557169E0
4.542524010E0,2.106874228E0,-1.656055689E0,-1.846645594E0
4.552556626E0,2.125811100E0,-1.279151797E0,-1.666440368E0
4.562513164E0,2.039679050E0,-9.248499870E-1,-1.565036774E0
4.572545780E0,1.876578093E0,-6.817256212E-1,-1.559538960E0
4.582532549E0,1.658499122E0,-5.296201706E-1,-1.646892667E0
4.592537164E0,1.415374756E0,-4.379903674E-1,-1.781893969E0
4.602521472E0,1.182635069E0,-4.269948006E-1,-1.928501606E0
4.612556626E0,9.657779336E-1,-4.868595898E-1,-2.074498415E0
4.622510472E0,7.476990819E-1,-5.845980644E-1,-2.209499598E0
4.632541165E0,5.265658498E-1,-7.055493593E-1,-2.320066214E0
4.642530088E0,3.084869385E-1,-8.228355050E-1,-2.392148256E0
4.652530472E0,1.050688252E-1,-9.156870246E-1,-2.406809092E0
4.662519088E0,-8.674286306E-2,-9.407324791E-1,-2.359161615E0
4.672549780E0,-2.803871334E-1,-9.022479653E-1,-2.262644768E0
4.682508011E0,-4.679227769E-1,-8.252789378E-1,-2.139860868E0
4.692539011E0,-6.505714655E-1,-7.470881939E-1,-2.034181356E0
4.702527626E0,-8.924741149E-1,-6.872233748E-1,-1.952936172E0
4.712530088E0,-1.021977544E0,-6.890559793E-1,-1.945605755E0
4.722516626E0,-1.140485406E0,-7.318165898E-1,-1.985922933E0
4.732549549E0,-1.243110776E0,-8.265006542E-1,-2.070222378E0
4.742505780E0,-1.291369081E0,-9.505063295E-1,-2.185675859E0
4.752538473E0,-1.266934514E0,-1.059240341E0,-2.290744781E0
4.762525165E0,-1.164309144E0,-1.131322384E0,-2.341446400E0
4.772556011E0,-1.015258074E0,-1.079398870E0,-2.303572893E0
4.782514165E0,-8.277224302E-1,-9.779952765E-1,-2.167960644E0
4.792544934E0,-6.261368990E-1,-7.874053121E-1,-1.987144589E0
4.802533780E0,-4.263839424E-1,-5.015203953E-1,-1.782504797E0
4.812534088E0,-2.425135076E-1,-1.698205322E-1,-1.546710849E0
4.822522780E0,-9.957103431E-2,1.740965992E-1,-1.289536476E0
4.832553780E0,-6.108652335E-3,5.045747161E-1,-1.013425469E0
4.842511704E0,5.253441259E-2,7.831292152E-1,-7.214318514E-1
4.852542473E0,7.330382615E-2,9.932668805E-1,-4.098905921E-1
4.862531319E0,4.642575979E-2,1.166752577E0,-7.635815442E-2
4.872531319E0,-6.780604273E-2,1.291369081E0,2.425135076E-1
4.882520319E0,-2.583959997E-1,1.285260439E0,5.638286471E-1
4.892551011E0,-5.021312237E-1,1.202793717E0,8.484918475E-1
4.902509473E0,-7.715228200E-1,1.082453251E0,1.076955438E0
4.912540011E0,-9.957103729E-1,8.729264140E-1,1.278540969E0
4.922528934E0,-1.144761443E0,5.998696685E-1,1.471574426E0
4.932529242E0,-1.211956620E0,3.066543639E-1,1.644449234E0
4.942517858E0,-1.222341299E0,7.208210230E-2,1.824043632E0
4.952550781E0,-1.198517561E0,-4.153883830E-2,2.021353006E0
4.962507011E0,-1.140485406E0,-3.298672289E-2,2.227214575E0
4.972539935E0,-1.037860036E0,9.040805697E-2,2.426356792E0
4.982525473E0,-8.790351152E-1,3.066543639E-1,2.612670660E0
4.992528242E0,-5.461135507E-1,7.709119320E-1,2.870455742E0
5.002514781E0,-2.767219543E-1,1.172250390E0,3.024393797E0
5.012547935E0,8.552113548E-3,1.560760736E0,3.161227703E0
5.022534396E0,2.767219543E-1,1.895514846E0,3.298061371E0
5.032536627E0,5.155702829E-1,2.188730240E0,3.426954031E0
5.042523396E0,7.373143435E-1,2.406809092E0,3.517362118E0
5.052556319E0,9.535606503E-1,2.585792542E0,3.568063974E0
5.062512550E0,1.174082994E0,2.741563320E0,3.595552921E0
5.072545473E0,1.391551018E0,2.847242832E0,3.605326653E0
5.082532550E0,1.585806131E0,2.838079929E0,3.583335638E0
5.092535012E0,1.734246373E0,2.656652927E0,3.510031700E0
5.102521473E0,1.797165513E0,2.386039734E0,3.401908636E0
5.112554396E0,1.748907208E0,2.191784382E0,3.296839714E0
5.122510473E0,1.632231951E0,2.080606937E0,3.183829546E0
5.132543397E0,1.547932506E0,1.929723263E0,3.049439192E0
5.142530089E0,1.528384805E0,1.810604572E0,2.950479031E0
5.152532550E0,1.583362699E0,1.720196486E0,2.808147430E0
5.162519089E0,1.586417079E0,1.482569933E0,2.612059832E0
5.172552012E0,1.442252874E0,1.372614264E0,2.545475483E0
5.182508012E0,1.276097536E0,1.291980028E0,2.474004269E0
5.192541166E0,1.089783549E0,1.069014192E0,2.329229116E0
5.202527627E0,8.265006542E-1,8.130616546E-1,2.188119411E0
5.212530089E0,5.082398653E-1,5.375614166E-1,2.022574902E0
5.222516628E0,1.649336219E-1,3.237585723E-1,1.841147900E0
5.232549474E0,-1.606575549E-1,8.246681094E-2,1.655444860E0
5.242505781E0,-4.398229718E-1,-1.838704348E-1,1.497230768E0
5.252538704E0,-6.805039048E-1,-3.707951903E-1,1.368949056E0
5.262525166E0,-8.863654733E-1,-4.929682612E-1,1.227228284E0
5.272557858E0,-1.121548533E0,-6.688974500E-1,1.058018565E0
5.282514166E0,-1.251662850E0,-8.020660877E-1,7.867944241E-1
5.292547012E0,-1.350623012E0,-9.523389339E-1,5.821545720E-1
5.302533782E0,-1.420261741E0,-1.112385631E0,3.659082949E-1
5.312536012E0,-1.481959105E0,-1.226006508E0,1.563815027E-1
5.322522782E0,-1.551597714E0,-1.265101910E0,-3.481931984E-2
5.332555628E0,-1.609019041E0,-1.288925648E0,-2.052507252E-1
5.342511705E0,-1.624901533E0,-1.340849161E0,-3.622430861E-1
5.352544320E0,-1.619403720E0,-1.400103092E0,-4.990769029E-1
5.362531320E0,-1.617571115E0,-1.436144233E0,-6.200281978E-1
5.372533551E0,-1.588249683E0,-1.489289522E0,-7.788531780E-1
5.382520320E0,-1.466076612E0,-1.575421453E0,-1.007316828E0
5.392550782E0,-1.235169530E0,-1.635286212E0,-1.266323686E0
5.402509243E0,-9.108000994E-1,-1.637118816E0,-1.511891484E0
5.412542166E0,-5.100724697E-1,-1.609629869E0,-1.720196486E0
5.422528936E0,-6.719517708E-2,-1.551597714E0,-1.892460585E0
5.432531320E0,3.646865487E-1,-1.436144233E0,-2.028072596E0
5.442925000E0,7.165449262E-1,-1.266934514E0,-2.130087137E0
5.452957923E0,9.877691269E-1,-1.059240341E0,-2.241264582E0
5.462913923E0,1.205237150E0,-8.203920126E-1,-2.384817839E0
5.472946769E0,1.390329242E0,-5.674937963E-1,-2.564412355E0
5.482933538E0,1.541213036E0,-3.396410644E-1,-2.733011007E0
5.492936077E0,1.652390480E0,-1.478293836E-1,-2.844799519E0
5.502922538E0,1.720196486E0,-9.162978269E-3,-2.879007816E0
5.512955462E0,1.742187738E0,5.009094998E-2,-2.825251818E0
5.522942154E0,1.700648785E0,2.932153270E-2,-2.714074373E0
5.532944385E0,1.598023534E0,-3.604105115E-2,-2.527149439E0
5.542931077E0,1.455080986E0,-1.722639948E-1,-2.269975185E0
5.552964077E0,1.268156290E0,-3.414736688E-1,-2.026240110E0
5.562920077E0,1.050688267E0,-4.972442985E-1,-1.872912884E0
5.572953000E0,6.908885837E-1,-6.914994717E-1,-1.842369556E0
5.582939692E0,4.373795092E-1,-7.690793276E-1,-1.915062547E0
5.592944077E0,1.771509200E-1,-8.002334833E-1,-2.014633656E0
5.602928616E0,-7.696902007E-2,-7.739662528E-1,-2.092213392E0
5.612992077E0,-3.048217595E-1,-6.976081133E-1,-2.099543810E0
5.622917616E0,-4.831944108E-1,-6.261368990E-1,-2.034792185E0
5.632948308E0,-6.145304441E-1,-5.650503635E-1,-1.907121301E0
5.642937231E0,-7.257078886E-1,-4.899139404E-1,-1.745852828E0
5.652937539E0,-8.203920126E-1,-3.897320330E-1,-1.524108768E0
5.662926231E0,-9.291260242E-1,-2.913827300E-1,-1.408655286E0
5.672959077E0,-1.066570759E0,-3.023782969E-1,-1.408655286E0
5.682915154E0,-1.237612963E0,-3.842342496E-1,-1.475239515E0
5.692948077E0,-1.392161846E0,-4.520402849E-1,-1.593136549E0
5.702934770E0,-1.480126500E0,-5.601634383E-1,-1.736689925E0
5.712937000E0,-1.505172014E0,-6.731734872E-1,-1.882075787E0
5.722923770E0,-1.476461291E0,-7.684684992E-1,-2.023796558E0
5.732957000E0,-1.453248382E0,-8.338310719E-1,-2.167349815E0
5.742912924E0,-1.432479024E0,-8.362745047E-1,-2.306016207E0
5.752945616E0,-1.368338108E0,-8.100073338E-1,-2.417804718E0
5.762932308E0,-1.233336926E0,-7.470881939E-1,-2.494162798E0
5.772965308E0,-1.042747021E0,-5.907067060E-1,-2.539366722E0
5.782921308E0,-8.014551997E-1,-4.630358517E-1,-2.538755894E0
5.792952078E0,-5.723807216E-1,-3.646865487E-1,-2.484389067E0
5.802940924E0,-4.092797041E-1,-1.881465018E-1,-2.412306786E0
5.812941231E0,-3.054326177E-1,2.443460980E-3,-2.310903311E0
5.822929924E0,-2.474004179E-1,2.370157093E-1,-2.152689219E0
5.832960616E0,-2.150245607E-1,4.850270152E-1,-1.915062547E0
5.842918847E0,-2.095267773E-1,6.798930168E-1,-1.576032281E0
5.852949847E0,-3.219259977E-1,8.344419003E-1,-9.297369123E-1
5.862938462E0,-5.112941861E-1,8.191702962E-1,-4.196644127E-1
5.872938462E0,-7.788531780E-1,6.462954283E-1,1.441642046E-1
5.882927462E0,-1.056796908E0,3.176499307E-1,7.195992470E-1
5.892958155E0,-1.293812633E0,-9.712757170E-2,1.268767118E0
5.902916616E0,-1.457524419E0,-5.015203953E-1,1.762957096E0
5.912947386E0,-1.501506805E0,-7.727445364E-1,2.131308794E0
5.922936078E0,-1.421483397E0,-8.674286604E-1,2.318233490E0
5.932938463E0,-1.249219418E0,-7.892379165E-1,2.399478674E0
5.942925001E0,-1.036638379E0,-5.345070958E-1,2.499049664E0
5.952957924E0,-8.026769161E-1,-1.105666086E-1,2.627331495E0
5.962914155E0,-5.491678715E-1,3.390302062E-1,2.758056641E0
5.972947155E0,-3.145956099E-1,7.422012687E-1,2.933985710E0
5.982932616E0,-1.160643995E-1,1.116050839E0,3.123964787E0
5.992935386E0,6.597344577E-2,1.444696307E0,3.288287640E0
6.002921924E0,2.193006277E-1,1.720196486E0,3.404962778E0
6.012954847E0,3.469714522E-1,1.917505980E0,3.472769022E0
6.022941540E0,4.618141353E-1,2.047009468E0,3.506977320E0
6.032944001E0,5.766568184E-1,2.097711325E0,3.525914192E0
6.042930540E0,6.896668673E-1,2.108706713E0,3.577226877E0
6.052963463E0,7.910705209E-1,2.120924234E0,3.665802240E0
6.062919694E0,9.071348906E-1,2.133141518E0,3.690237045E0
6.072952386E0,1.017701507E0,2.117869854E0,3.637702465E0
6.082939694E0,1.112385631E0,2.112982988E0,3.588222504E0
6.092940001E0,1.204015374E0,2.181399822E0,3.532022953E0
6.102928617E0,1.287703991E0,2.252871037E0,3.443447351E0
6.112959386E0,1.321301579E0,2.284025192E0,3.350595951E0
6.122917617E0,1.296866894E0,2.236988544E0,3.189938307E0
6.132948617E0,1.193019867E0,1.977370739E0,2.927266359E0
6.142937232E0,8.026769161E-1,1.409876943E0,2.573575258E0
6.152939694E0,4.422664344E-1,1.089783549E0,2.361604929E0
6.162926232E0,1.160643995E-1,6.774495840E-1,2.114204645E0
6.172959155E0,-1.838704348E-1,3.439171314E-1,1.891238809E0
6.182915386E0,-4.624249935E-1,1.307251602E-1,1.695761919E0
6.192950463E0,-7.141014934E-1,-1.374446750E-1,1.493565559E0
6.202934771E0,-9.651671052E-1,-3.933972120E-1,1.302975535E0
6.212937309E0,-1.238834739E0,-5.632177591E-1,1.201571941E0
6.222923771E0,-1.537547827E0,-6.579018831E-1,1.200961113E0
6.232956386E0,-1.792278647E0,-7.745771408E-1,1.205237150E0
6.242912694E0,-1.955379605E0,-8.399397135E-1,1.156367898E0
6.252945540E0,-2.039679050E0,-8.662069440E-1,1.071457624E0
6.262932309E0,-2.064724445E0,-9.071348906E-1,9.584475756E-1
6.272965002E0,-2.036624670E0,-9.217956662E-1,8.051204085E-1
6.282921309E0,-1.961488247E0,-9.236282706E-1,6.420193911E-1
6.292954233E0,-1.829541445E0,-9.425650835E-1,5.045747161E-1
6.302940925E0,-1.656666517E0,-9.853256345E-1,3.958406746E-1
6.312943079E0,-1.480126500E0,-1.025642753E0,2.999348342E-1
6.322929925E0,-1.329853654E0,-1.072068453E0,2.015855312E-1
6.332960617E0,-1.191798091E0,-1.120937705E0,7.086037099E-2
6.342918848E0,-1.036027431E0,-1.191187263E0,-9.346238524E-2
6.352949540E0,-8.411614299E-1,-1.257160664E0,-2.700024247E-1
6.362938464E0,-6.084218025E-1,-1.302975535E0,-4.752531648E-1
6.372938540E0,-3.622430861E-1,-1.308473349E0,-7.415903807E-1
6.382927387E0,-1.111774743E-1,-1.222341299E0,-1.069625020E0
6.392957925E0,1.893682331E-1,-1.059851170E0,-1.436144233E0
6.402916387E0,5.668829679E-1,-9.034696817E-1,-1.806328535E0
6.412947387E0,9.889908433E-1,-7.861835957E-1,-2.141693592E0
6.422936002E0,1.388496757E0,-6.890559793E-1,-2.395813465E0
6.432938233E0,1.860084653E0,-5.314527750E-1,-2.539366722E0
6.442925002E0,2.048231125E0,-3.866777122E-1,-2.461786985E0
6.452958156E0,2.094656944E0,-2.260201424E-1,-2.292577267E0
6.462913925E0,2.002416372E0,-3.604105115E-2,-2.086104870E0
6.472949002E0,1.817324162E0,1.795943826E-1,-1.920560360E0
6.482933541E0,1.583362699E0,3.659082949E-1,-1.848478198E0
6.492938233E0,1.358564258E0,5.332853794E-1,-1.891238809E0
6.502922541E0,1.180191636E0,6.377432942E-1,-2.037235498E0
6.512955464E0,1.062905550E0,6.395758986E-1,-2.249205828E0
6.522942156E0,1.007927656E0,5.699372888E-1,-2.482556343E0
6.532944618E0,9.810495973E-1,4.508185387E-1,-2.706743956E0
6.542931156E0,9.388998747E-1,2.889392674E-1,-2.916270733E0
6.552966156E0,8.295549750E-1,1.172861308E-1,-3.123353958E0
6.562920079E0,6.615670323E-1,-7.880161703E-2,-3.287065983E0
6.572953233E0,4.618141353E-1,-3.115412891E-1,-3.365256548E0
6.582939695E0,2.345722616E-1,-5.412266254E-1,-3.354871988E0
6.592941926E0,-2.382374369E-2,-7.183775306E-1,-3.281568050E0
6.602928618E0,-3.139847219E-1,-8.411614299E-1,-3.171001434E0
6.612959464E0,-6.120869517E-1,-9.718865752E-1,-3.031724215E0
6.622917618E0,-8.924741149E-1,-1.108109593E0,-2.882673025E0
6.632948387E0,-1.123381138E0,-1.238223910E0,-2.750115395E0
6.642937233E0,-1.303586483E0,-1.373835921E0,-2.647490025E0
6.652939695E0,-1.448361516E0,-1.491122007E0,-2.585181713E0
6.662926233E0,-1.550375938E0,-1.554041147E0,-2.566244841E0
6.672959080E0,-1.596190929E0,-1.536936998E0,-2.599842548E0
6.682915157E0,-1.593747377E0,-1.476461291E0,-2.678644180E0
6.692948310E0,-1.565647602E0,-1.392161846E0,-2.756223917E0
6.702934772E0,-1.521054506E0,-1.273043156E0,-2.811201811E0
6.712937003E0,-1.449583173E0,-1.137431145E0,-2.831360340E0
6.722923772E0,-1.268767118E0,-9.388998747E-1,-2.809980154E0
6.732954541E0,-1.103222609E0,-7.782423496E-1,-2.765997887E0
6.742912926E0,-9.046914577E-1,-5.778785348E-1,-2.671924591E0
6.752943695E0,-6.798930168E-1,-3.530801237E-1,-2.521040916E0
6.762932311E0,-4.544837475E-1,-1.368338168E-1,-2.322509766E0
6.772963157E0,-2.492330223E-1,6.352998316E-2,-2.104430676E0
6.782921311E0,-8.735372871E-2,2.736676335E-1,-1.852143407E0
6.792952003E0,1.282817032E-2,4.263839424E-1,-1.518610954E0
6.802940926E0,4.092797264E-2,4.709770977E-1,-1.123381138E0
6.812941234E0,-6.719517522E-3,4.208861589E-1,-7.147123218E-1
6.822929926E0,-1.350012124E-1,2.785545588E-1,-2.962696552E-1
6.832960618E0,-3.414736688E-1,7.452555746E-2,1.252273768E-1
6.842918849E0,-5.882632136E-1,-1.936442852E-1,5.192354321E-1
6.852949542E0,-7.996225953E-1,-4.801400900E-1,8.381071091E-1
6.862938465E0,-9.279043078E-1,-6.860016584E-1,1.078177214E0
6.872938772E0,-9.700540304E-1,-7.391469479E-1,1.286482215E0
6.882927465E0,-9.248499870E-1,-6.676757336E-1,1.497230768E0
6.892958465E0,-8.185594082E-1,-5.167919993E-1,1.725694299E0
6.902916619E0,-6.982190013E-1,-3.097086847E-1,1.990198970E0
6.912947157E0,-6.010913849E-1,-4.276056588E-2,2.317622662E0
6.922936003E0,-5.387831330E-1,3.506366611E-1,2.674368143E0
6.932936388E0,-4.679227769E-1,7.360926270E-1,2.957809448E0
6.942925003E0,-3.683517575E-1,9.462302923E-1,3.178942680E0
6.952957926E0,-2.828305960E-1,1.096503139E0,3.410460711E0
6.962914157E0,-2.229658216E-1,1.156978726E0,3.608381033E0
6.972947080E0,-1.508837193E-1,1.130711555E0,3.761708260E0
6.982932619E0,-5.925392732E-2,1.094059706E0,3.893044233E0
6.992935465E0,5.131268129E-2,1.067181587E0,4.012773991E0
7.002921927E0,1.777617931E-1,1.054964304E0,4.117842674E0
7.012955080E0,3.750712574E-1,1.031751394E0,4.228409290E0
7.022941542E0,4.850270152E-1,1.048855662E0,4.326758385E0
7.032943773E0,5.925393105E-1,1.071457624E0,4.444044590E0
7.042930542E0,6.805039048E-1,1.143539786E0,4.586376190E0
7.052963696E0,7.312057018E-1,1.307251573E0,4.729318619E0
7.062919696E0,7.727445364E-1,1.537547827E0,4.856989384E0
7.072952619E0,8.448266387E-1,1.764178872E0,4.915632725E0
7.082939696E0,9.297369123E-1,1.975538254E0,4.915021896E0
7.092942158E0,9.926560521E-1,2.212553978E0,4.882646084E0
7.102928619E0,1.043357849E0,2.456289053E0,4.817893982E0
7.112959388E0,1.092227101E0,2.602285862E0,4.693888664E0
7.122917619E0,1.138041973E0,2.588846922E0,4.504520416E0
7.132948388E0,1.156978726E0,2.421469927E0,4.236350536E0
7.142937235E0,1.095892191E0,2.162462950E0,3.922976494E0
7.152937542E0,9.553932548E-1,1.875967145E0,3.584557295E0
7.162926235E0,7.910705209E-1,1.584584475E0,3.199101210E0
7.172957004E0,6.145304441E-1,1.229671717E0,2.767830372E0
7.182915158E0,3.878994286E-1,8.515461683E-1,2.309681416E0
7.192948927E0,1.032362282E-1,4.251621962E-1,1.833817482E0
7.202934773E0,-2.235766798E-1,-2.809980139E-2,1.340238333E0
7.212937235E0,-5.803219676E-1,-4.508185387E-1,8.833111525E-1
7.222923773E0,-9.364564419E-1,-9.028588533E-1,4.679227769E-1
7.232956619E0,-1.308473349E0,-1.268156290E0,1.459967941E-1
7.242912927E0,-1.668883801E0,-1.496619821E0,-1.117883399E-1
7.252943466E0,-1.960877419E0,-1.711033583E0,-3.145956099E-1
7.262932389E0,-2.160019398E0,-1.905899525E0,-4.679227769E-1
7.272962773E0,-2.267531872E0,-2.036624670E0,-6.188064814E-1
7.282921312E0,-2.277305603E0,-2.057394028E0,-7.825183868E-1
7.292952081E0,-2.196060658E0,-2.021964073E0,-9.657779336E-1
7.302940927E0,-1.939497113E0,-1.864971638E0,-1.239445567E0
7.312940927E0,-1.674992561E0,-1.698816299E0,-1.380555511E0
7.322929850E0,-1.343292713E0,-1.510669708E0,-1.507004619E0
7.332960620E0,-9.743300676E-1,-1.298699498E0,-1.651779652E0
7.342918850E0,-6.157521605E-1,-1.087340117E0,-1.832595706E0
7.352949851E0,-2.840523422E-1,-9.077457786E-1,-2.031126976E0
7.362938466E0,2.015855350E-2,-7.892379165E-1,-2.219273329E0
7.372940697E0,3.255911767E-1,-7.330383062E-1,-2.395813465E0
7.382927389E0,6.469063163E-1,-7.049384713E-1,-2.535701513E0
7.392960312E0,9.615018964E-1,-6.792821288E-1,-2.625498772E0
7.402916389E0,1.236391306E0,-6.432411075E-1,-2.670091867E0
7.412949543E0,1.431868076E0,-5.937610269E-1,-2.671313763E0
7.422936005E0,1.535715222E0,-5.314527750E-1,-2.636494398E0
7.432938235E0,1.549765110E0,-4.752531648E-1,-2.593122959E0
7.442925005E0,1.480737329E0,-4.550946057E-1,-2.572964430E0
7.452957928E0,1.342681766E0,-4.746423066E-1,-2.598009825E0
7.462913928E0,1.164919972E0,-5.241223574E-1,-2.657263756E0
7.472949005E0,9.712757468E-1,-5.907067060E-1,-2.734843731E0
7.482933543E0,7.898487449E-1,-6.377432942E-1,-2.828917027E0
7.492936005E0,6.420193911E-1,-6.921103001E-1,-2.937040091E0
7.502922543E0,5.180137157E-1,-7.727445364E-1,-3.045163155E0
7.512955389E0,3.958406746E-1,-8.582656980E-1,-3.130073547E0
7.522942159E0,2.602286041E-1,-9.327912331E-1,-3.188716650E0
7.532944620E0,1.069014147E-1,-9.902125597E-1,-3.233309746E0
7.542931159E0,-8.857546002E-2,-1.005484223E0,-3.266296387E0
7.552964082E0,-3.243694305E-1,-1.006705880E0,-3.272405148E0
7.562920082E0,-5.632177591E-1,-1.025642753E0,-3.242472649E0
7.572953236E0,-7.757988572E-1,-1.059240341E0,-3.197268724E0
7.582939697E0,-9.462302923E-1,-1.124602914E0,-3.150232077E0
7.592942159E0,-1.138041973E0,-1.200350165E0,-3.077539206E0
7.602928620E0,-1.244943380E0,-1.206458807E0,-3.031113386E0
7.612994236E0,-1.327410221E0,-1.224173903E0,-3.010954857E0
7.622917620E0,-1.357953429E0,-1.215011001E0,-3.019506931E0
7.632950543E0,-1.332297087E0,-1.200350165E0,-3.050661087E0
7.642937236E0,-1.274264932E0,-1.194241524E0,-3.080593348E0
7.652939774E0,-1.218065262E0,-1.197906733E0,-3.100751877E0
7.662926236E0,-1.177748203E0,-1.202182770E0,-3.097697735E0
7.672956928E0,-1.132544160E0,-1.177748203E0,-3.064710855E0
7.682915159E0,-1.049466491E0,-1.116050839E0,-2.988352776E0
7.692945928E0,-9.248499870E-1,-1.046412110E0,-2.841745138E0
7.702934851E0,-7.654141784E-1,-9.755517840E-1,-2.599231720E0
7.712935159E0,-5.809328556E-1,-8.985827565E-1,-2.272418737E0
7.722923774E0,-3.677408695E-1,-7.929030657E-1,-1.867415071E0
7.732954774E0,-1.319468915E-1,-6.670648456E-1,-1.397659659E0
7.742912698E0,9.712757170E-2,-5.143485069E-1,-8.991936445E-1
7.752943467E0,2.883284092E-1,-3.213151097E-1,-4.288274050E-1
7.762932313E0,4.190535545E-1,-1.301143020E-1,-1.954768784E-2
7.772962852E0,4.783074856E-1,3.848451003E-2,3.286454976E-1
7.782921313E0,4.697553813E-1,1.655444801E-1,6.304129362E-1
7.792952082E0,4.086688459E-1,2.290744632E-1,8.655960560E-1
7.802940928E0,2.999348342E-1,2.254092693E-1,1.017090678E0
7.812943467E0,1.459967941E-1,1.569923609E-1,1.116050839E0
7.822929929E0,-5.436700583E-2,5.009094998E-2,1.181413412E0
7.832962852E0,-2.620611787E-1,-5.497787148E-2,1.205847979E0
7.842918852E0,-4.196644127E-1,-1.392772794E-1,1.189354658E0
7.852949621E0,-5.131267905E-1,-1.172861308E-1,1.165530920E0
7.862938467E0,-5.174028873E-1,5.681046844E-2,1.191798091E0
7.872938544E0,-4.123340547E-1,3.567453027E-1,1.288314819E0
7.882927698E0,-1.563815027E-1,9.297369123E-1,1.546099901E0
7.892958467E0,0.000000000E0,1.390329242E0,1.743409395E0
7.902916390E0,1.258382350E-1,1.789224267E0,1.931555867E0
7.912947390E0,1.899790913E-1,2.039068222E0,2.147802114E0
7.922936006E0,1.759291887E-1,2.180788994E0,2.406809092E0
7.932936313E0,9.590584040E-2,2.205834389E0,2.674978971E0
7.942925006E0,-3.176499158E-2,2.075720072E0,2.926655293E0
7.952957852E0,-1.844813079E-1,1.872301936E0,3.153897285E0
7.962914160E0,-3.255911767E-1,1.641394973E0,3.331048250E0
7.972947160E0,-4.379903674E-1,1.366505504E0,3.447723389E0
7.982932621E0,-5.198463202E-1,1.106276989E0,3.544240236E0
7.992935160E0,-5.784893632E-1,9.046914577E-1,3.619376659E0
8.002921929E0,-6.322455406E-1,7.617489696E-1,3.656639338E0
8.012955083E0,-6.542366743E-1,6.731734872E-1,3.663358927E0
8.022941544E0,-6.029239893E-1,6.713408828E-1,3.658472061E0
8.032944006E0,-4.508185387E-1,8.344419003E-1,3.641978502E0
8.042930544E0,-2.119702399E-1,1.109942198E0,3.530801058E0
8.052961544E0,2.687807009E-2,1.346346974E0,3.290120125E0
8.062919698E0,1.893682331E-1,1.444085479E0,3.028669834E0
8.072952621E0,2.119702399E-1,1.444085479E0,2.863125324E0
8.082939698E0,1.533271819E-1,1.312138557E0,2.785545588E0
8.092942160E0,7.513642311E-2,1.191798091E0,2.774549961E0
8.102928622E0,1.649336144E-2,1.095281363E0,2.753780603E0
8.112961545E0,-4.886921961E-3,9.779952765E-1,2.716517687E0
8.122917622E0,-1.221730490E-3,9.010262489E-1,2.646268129E0
8.132950852E0,8.552113548E-3,8.717046976E-1,2.537534237E0
8.142937237E0,1.160643995E-2,8.521569967E-1,2.404976368E0
8.152937545E0,-3.054326167E-3,8.216137290E-1,2.259590626E0
8.162926237E0,-3.848451003E-2,7.837401032E-1,2.100765467E0
8.172956929E0,-1.270599663E-1,6.914994717E-1,1.846034765E0
8.182915160E0,-2.040289938E-1,6.157521605E-1,1.662164330E0
8.192945929E0,-2.809980214E-1,5.039638281E-1,1.481959105E0
8.202934776E0,-3.652974069E-1,3.433062732E-1,1.307862520E0
8.212935083E0,-4.654793143E-1,1.362229437E-1,1.147815824E0
8.222923776E0,-5.723807216E-1,-9.590584040E-2,9.969320893E-1
8.232954468E0,-6.792821288E-1,-3.237585723E-1,8.356636763E-1
8.242912930E0,-7.703011036E-1,-5.418374538E-1,6.805039048E-1
8.252943468E0,-8.069530129E-1,-7.422012687E-1,5.308418870E-1
8.262932314E0,-7.831292152E-1,-8.967501521E-1,3.891211748E-1
8.272962853E0,-7.079927921E-1,-1.023199320E0,2.706133127E-1
8.282921314E0,-5.858197808E-1,-1.110553026E0,1.288925707E-1
8.292952007E0,-3.976732790E-1,-1.134987593E0,-3.787364438E-2
8.302940930E0,-1.246165112E-1,-1.106887817E0,-2.382374406E-1
8.312940930E0,2.266310006E-1,-1.054353356E0,-4.996877611E-1
8.322929930E0,6.249151230E-1,-1.015868902E0,-8.087855577E-1
8.332960622E0,1.046412110E0,-1.008538485E0,-1.117272496E0
8.342918853E0,1.447750688E0,-1.003651619E0,-1.390940189E0
8.352949545E0,1.796554685E0,-9.547823668E-1,-1.629177570E0
8.362938468E0,2.081828833E0,-8.753699064E-1,-1.855808616E0
8.372940699E0,2.310903311E0,-7.501425147E-1,-2.048841953E0
8.382927391E0,2.489886761E0,-5.894849896E-1,-2.141693592E0
8.392960007E0,2.588236094E0,-4.355469346E-1,-2.111761093E0
8.402916391E0,2.576629639E0,-3.139847219E-1,-1.985312104E0
8.412949315E0,2.447126150E0,-2.755002379E-1,-1.805106759E0
8.422936084E0,2.202169180E0,-3.292563558E-1,-1.619403720E0
8.432940315E0,1.853976011E0,-4.630358517E-1,-1.486845970E0
8.442925007E0,1.441031098E0,-6.701191664E-1,-1.426981211E0
8.452960084E0,1.020755768E0,-9.645562172E-1,-1.431868076E0
8.462913930E0,4.141666293E-1,-1.502117634E0,-1.550986886E0
8.472948930E0,2.076941915E-2,-1.863139033E0,-1.692707539E0
8.482933546E0,-3.457497358E-1,-2.194838762E0,-1.851532578E0
8.492937930E0,-6.725626588E-1,-2.463008642E0,-2.009135723E0
8.502922546E0,-9.950994849E-1,-2.677422285E0,-2.171625853E0
8.512955392E0,-1.360396862E0,-2.818532228E0,-2.354274750E0
8.522942161E0,-1.753183246E0,-2.888170958E0,-2.537534237E0
8.532946546E0,-2.133752346E0,-2.896723032E0,-2.701857090E0
8.542931161E0,-2.464230299E0,-2.846632004E0,-2.828306198E0
8.552964007E0,-2.722626448E0,-2.726902485E0,-2.910772800E0
8.562920084E0,-2.922379255E0,-2.565634012E0,-2.962085485E0
8.572952930E0,-3.111747503E0,-2.379320145E0,-3.003013611E0
8.582939700E0,-3.284622431E0,-2.189951897E0,-3.055547953E0
8.592941853E0,-3.424510479E0,-2.016466141E0,-3.134960413E0
8.602928700E0,-3.532633781E0,-1.902845263E0,-3.243083477E0
8.612961546E0,-3.653584957E0,-1.873523712E0,-3.398243427E0
8.622917623E0,-3.841731548E0,-1.913229942E0,-3.631593943E0
8.632950238E0,-4.125173092E0,-2.059837580E0,-3.930917740E0
8.642937238E0,-4.481918335E0,-2.335948706E0,-4.261395931E0
8.652939392E0,-4.831943989E0,-2.600453377E0,-4.543004990E0
8.662926238E0,-5.098892212E0,-2.734232903E0,-4.694499493E0
8.672956931E0,-5.216178417E0,-2.711630821E0,-4.726875305E0
8.682915161E0,-5.199074268E0,-2.525927782E0,-4.570493698E0
8.692945931E0,-5.045746803E0,-2.266309977E0,-4.229020119E0
8.702934777E0,-4.778798580E0,-1.984701157E0,-3.737273455E0
8.712934546E0,-4.434270859E0,-1.695761919E0,-3.142901659E0
8.722923777E0,-4.032321453E0,-1.409876943E0,-2.458732605E0
8.732954238E0,-3.538742304E0,-1.210124016E0,-1.734246373E0
8.742912931E0,-3.006678820E0,-1.099557400E0,-1.065348983E0
8.752943392E0,-2.259590626E0,-1.072068453E0,-1.912008226E-1
8.762932315E0,-1.806939363E0,-1.077566266E0,2.816088796E-1
8.772962854E0,-1.376279354E0,-1.112996459E0,6.249151230E-1
8.782921546E0,-9.883799553E-1,-1.158200502E0,8.704829812E-1
8.792952008E0,-6.407976151E-1,-1.162476540E0,1.066570759E0
8.802940931E0,-3.396410644E-1,-1.081842303E0,1.247386813E0
8.812941008E0,-5.986479297E-2,-9.138544202E-1,1.412320495E0
8.822929931E0,2.199114859E-1,-6.701191664E-1,1.557095528E0
8.832960700E0,4.880813360E-1,-3.268128932E-1,1.695761919E0
8.842918854E0,7.629706860E-1,9.590584040E-2,1.843591332E0
8.852949931E0,1.066570759E0,5.412266254E-1,2.003027201E0
8.862938469E0,1.357342601E0,9.828822017E-1,2.199114799E0
8.872938777E0,1.616960287E0,1.379333735E0,2.463619471E0
8.882927470E0,1.842980504E0,1.707368374E0,2.778825998E0
8.892958239E0,2.044565916E0,1.939497113E0,3.132516861E0
8.902916623E0,2.213164806E0,2.067167997E0,3.507588148E0
8.912949547E0,2.367713690E0,2.096489429E0,3.876550913E0
8.922936085E0,2.514932156E0,2.049452782E0,4.210083485E0
8.932938470E0,2.642603159E0,1.938886285E0,4.486805439E0
8.942925008E0,2.755002260E0,1.772120118E0,4.705494881E0
8.952957854E0,2.853351593E0,1.582141042E0,4.871039391E0
8.962914239E0,2.933985710E0,1.386664152E0,4.998099327E0
8.972947085E0,2.979189873E0,1.193630695E0,5.102557182E0
8.982932624E0,2.981633186E0,1.010982037E0,5.195408821E0
8.992935393E0,2.941316128E0,8.527678847E-1,5.277875900E0
9.002921931E0,2.863125324E0,7.324274182E-1,5.337740421E0
9.012955085E0,2.756223917E0,6.646214128E-1,5.358510017E0
9.022941547E0,2.635883570E0,6.450737119E-1,5.342016697E0
9.032944008E0,2.503325701E0,6.695083380E-1,5.290703773E0
9.042930547E0,2.316401005E0,7.800748944E-1,5.170363426E0
9.052963701E0,2.213775635E0,8.625417352E-1,5.067738056E0
9.062919701E0,2.123367548E0,9.376781583E-1,4.946786880E0
9.072950239E0,2.034181356E0,9.889908433E-1,4.804455280E0
9.082939701E0,1.934610248E0,1.002429843E0,4.629747868E0
9.092940008E0,1.820378423E0,9.755517840E-1,4.412279606E0
9.102928624E0,1.704924941E0,9.254608750E-1,4.174653053E0
9.112959393E0,1.588860512E0,8.570439219E-1,3.934582949E0
9.122917624E0,1.456913590E0,7.599163651E-1,3.696956396E0
9.132948393E0,1.309695125E0,6.395758986E-1,3.451999426E0
9.142937316E0,1.156367898E0,5.326744914E-1,3.171001434E0
9.152937547E0,1.002429843E0,4.392121136E-1,2.851518869E0
9.162926239E0,8.497135639E-1,3.292563558E-1,2.512488842E0
9.172957009E0,7.000515461E-1,2.003637999E-1,2.153910875E0
9.182915163E0,5.613851547E-1,3.726277873E-2,1.789835215E0
9.192945855E0,4.459316432E-1,-1.209513173E-1,1.432479024E0
9.202934778E0,3.457497358E-1,-2.590068579E-1,1.078788042E0
9.212935086E0,2.510656118E-1,-3.811798990E-1,7.379252315E-1
9.222923778E0,1.545489132E-1,-5.351179838E-1,4.312708676E-1
9.232954470E0,4.703662544E-2,-6.976081133E-1,1.753183305E-1
9.242912932E0,-6.352998316E-2,-8.240572214E-1,-5.619960278E-2
9.252943393E0,-1.417207420E-1,-9.492846131E-1,-2.944370508E-1
9.262932317E0,-1.631010175E-1,-1.059240341E0,-5.119050741E-1
9.272965009E0,-1.264491081E-1,-1.163087368E0,-6.847799420E-1
9.282921317E0,-4.886921868E-2,-1.246775985E0,-8.161159754E-1
9.292952009E0,8.491026610E-2,-1.312138557E0,-9.193521738E-1
9.302940932E0,2.596177161E-1,-1.349401355E0,-1.109331250E0
9.312940701E0,4.471533597E-1,-1.318247199E0,-1.363451242E0
9.322929932E0,6.133087277E-1,-1.226006508E0,-1.623068929E0
9.332962855E0,7.599163651E-1,-1.032973170E0,-1.966986060E0
9.342918855E0,8.020660877E-1,-8.955284357E-1,-2.186897516E0
9.352953932E0,8.454375267E-1,-7.837401032E-1,-2.390315771E0
9.362938471E0,8.973610401E-1,-6.969972253E-1,-2.568077564E0
9.372942855E0,9.443976879E-1,-6.243042946E-1,-2.722015619E0
9.382927471E0,9.798278809E-1,-5.748242140E-1,-2.826473475E0
9.392962548E0,9.920451641E-1,-5.491678715E-1,-2.872288465E0
9.402916394E0,9.266825914E-1,-5.338962078E-1,-2.882062197E0
9.412951778E0,7.599163651E-1,-5.424483418E-1,-2.892446995E0
9.422936009E0,5.082398653E-1,-5.937610269E-1,-2.932764053E0
9.432940394E0,2.046398520E-1,-7.238753438E-1,-3.013398170E0
9.442925009E0,-1.282816976E-1,-9.279043078E-1,-3.121521473E0
9.452960086E0,-4.697553813E-1,-1.188743711E0,-3.252246618E0
9.462913932E0,-8.112290502E-1,-1.411709547E0,-3.384804249E0
9.472949009E0,-1.146594048E0,-1.568091035E0,-3.508810043E0
9.482933548E0,-1.459357023E0,-1.679879427E0,-3.609602690E0
9.492938240E0,-1.733024716E0,-1.713477015E0,-3.682906628E0
9.502922548E0,-1.962710023E0,-1.649947047E0,-3.734219313E0
9.512955702E0,-2.159408569E0,-1.547932506E0,-3.740938663E0
9.522942163E0,-2.337781191E0,-1.430646420E0,-3.710395575E0
9.532944625E0,-2.519208193E0,-1.291980028E0,-3.660915375E0
9.542931163E0,-2.672535419E0,-1.084896684E0,-3.603494167E0
9.552964010E0,-2.733011007E0,-8.594874144E-1,-3.538131475E0
9.562920087E0,-2.701857090E0,-6.414085031E-1,-3.454442978E0
9.572953010E0,-2.618168354E0,-4.404338300E-1,-3.348152399E0
9.582939702E0,-2.505158424E0,-2.596177161E-1,-3.236974955E0
9.592942164E0,-2.378709316E0,-1.325577646E-1,-3.123353958E0
9.602928625E0,-2.242486238E0,-7.635815442E-2,-3.019506931E0
9.612990241E0,-2.017687798E0,-7.880161703E-2,-2.905885935E0
9.622917625E0,-1.853365183E0,-1.069014147E-1,-2.841745138E0
9.632948625E0,-1.692096710E0,-1.447750628E-1,-2.762943506E0
9.642937241E0,-1.520443559E0,-1.808161139E-1,-2.652376890E0
9.652937548E0,-1.334740520E0,-2.211332172E-1,-2.513710499E0
9.662926241E0,-1.153924465E0,-2.614503205E-1,-2.348776817E0
9.672956933E0,-9.804387093E-1,-2.834414840E-1,-2.166738987E0
9.682915395E0,-8.136724830E-1,-2.846632004E-1,-1.955990553E0
9.692946164E0,-6.609562039E-1,-2.364048511E-1,-1.706757545E0
9.702934779E0,-5.180137157E-1,-1.600466967E-1,-1.426370382E0
9.712934856E0,-3.982841372E-1,-7.208210230E-2,-1.135598540E0
9.722923779E0,-3.139847219E-1,6.719517522E-3,-8.478809595E-1
9.732954472E0,-2.498438805E-1,3.543018550E-2,-5.638286471E-1
9.742912933E0,-2.162462920E-1,2.443460980E-3,-2.828305960E-1
9.752943702E0,-2.107485086E-1,-9.468411654E-2,6.108652451E-4
9.762932318E0,-2.247984111E-1,-2.461786866E-1,2.632829249E-1
9.772963087E0,-2.467895597E-1,-4.080579877E-1,4.831944108E-1
9.782921318E0,-2.651155293E-1,-5.503895879E-1,6.609562039E-1
9.792952010E0,-2.492330223E-1,-6.621779203E-1,8.106181622E-1
9.802940933E0,-1.826487035E-1,-6.914994717E-1,9.352346659E-1
9.812941318E0,-4.825835302E-2,-5.595525503E-1,1.031751394E0
9.822929933E0,1.435533315E-1,-2.596177161E-1,1.084285855E0
9.832960626E0,3.836233616E-1,1.606575549E-1,1.131322384E0
9.842918856E0,6.731734872E-1,6.505714655E-1,1.205237150E0
9.852949856E0,9.694431424E-1,1.191798091E0,1.337794900E0
9.862938549E0,1.253495455E0,1.707368374E0,1.538158655E0
9.872938549E0,1.483791709E0,2.108706713E0,1.740355134E0
9.882927472E0,1.607797384E0,2.388483047E0,1.986533761E0
9.892958164E0,1.619403720E0,2.560747147E0,2.323120594E0
9.902916395E0,1.529606581E0,2.605340242E0,2.719572067E0
9.912947164E0,1.292590857E0,2.433076382E0,3.340211153E0
9.922936087E0,1.120326877E0,2.163073778E0,3.722612858E0
9.932936395E0,9.724974632E-1,1.860084653E0,4.047593117E0
9.942925011E0,8.600982428E-1,1.573588848E0,4.297437191E0
9.952957934E0,7.861835957E-1,1.329242826E0,4.483750820E0
9.962914164E0,7.513642311E-1,1.178969979E0,4.636466980E0
9.972947088E0,7.666358948E-1,1.186300278E0,4.743368626E0
9.982932626E0,8.301658630E-1,1.336573124E0,4.746422768E0
9.992933318E0,9.028588533E-1,1.564425945E0,4.569882870E0
1.000292217E1,9.608910084E-1,1.697594523E0,4.221689701E0
1.001295270E1,9.560040832E-1,1.785559058E0,3.809966564E0
1.002294155E1,8.600982428E-1,1.852143407E0,3.422067165E0
1.003294378E1,7.049384713E-1,1.742187738E0,3.142901659E0
1.004293055E1,5.326744914E-1,1.604743004E0,2.976746321E0
1.005296370E1,3.714060783E-1,1.461800575E0,2.855184078E0
1.006291970E1,2.510656118E-1,1.226006508E0,2.740341425E0
1.007295263E1,1.783726513E-1,9.877691269E-1,2.615725040E0
1.008293970E1,1.673770845E-1,7.812966704E-1,2.475225925E0
1.009294216E1,1.991420686E-1,5.900958180E-1,2.346333504E0
1.010292863E1,2.492330223E-1,3.824016452E-1,2.247984171E0
1.011296163E1,2.919935882E-1,2.015855312E-1,2.169793367E0
1.012291763E1,3.072652221E-1,6.536258012E-2,2.105041742E0
1.013295078E1,2.785545588E-1,-6.047565863E-2,2.041511536E0
1.014293724E1,2.003637999E-1,-1.820378453E-1,1.973705649E0
1.015293970E1,6.597344577E-2,-2.626720667E-1,1.903456092E0
1.016292624E1,-1.069014147E-1,-3.347541690E-1,1.818545818E0
1.017295701E1,-2.858849466E-1,-4.544837475E-1,1.723861694E0
1.018291516E1,-4.514294267E-1,-6.029239893E-1,1.620014668E0
1.019294593E1,-5.797111392E-1,-7.373143435E-1,1.522276163E0
1.020293478E1,-7.012733221E-1,-8.564330935E-1,1.373835921E0
1.021293509E1,-7.660250068E-1,-9.187413454E-1,1.215621829E0
1.022292378E1,-8.179485798E-1,-9.975429177E-1,1.009760261E0
1.023295447E1,-8.319984674E-1,-1.093448758E0,7.770205736E-1
1.024291293E1,-7.770205736E-1,-1.188743711E0,5.387831330E-1
1.025294340E1,-6.682865620E-1,-1.301142931E0,2.889392674E-1
1.026293232E1,-5.516113043E-1,-1.488678575E0,-5.497787148E-3
1.027296255E1,-4.331034720E-1,-1.748296380E0,-3.707951903E-1
1.028292132E1,-2.645046413E-1,-2.053729057E0,-7.971791625E-1
1.029295209E1,5.497787148E-3,-2.367102861E0,-1.238223910E0
1.030294093E1,3.799581826E-1,-2.662150621E0,-1.653612256E0
1.031294101E1,8.197811842E-1,-2.937650919E0,-2.025018215E0
1.032292994E1,1.266934514E0,-3.232088089E0,-2.332894325E0
1.033296278E1,1.645671010E0,-3.456275463E0,-2.558914423E0
1.034291886E1,1.919338584E0,-3.550348759E0,-2.660318136E0
1.035295178E1,2.065335512E0,-3.434895277E0,-2.592512131E0
1.036293847E1,2.071444035E0,-3.153897285E0,-2.391537428E0
1.037294094E1,1.954768777E0,-2.769052267E0,-2.126421928E0
1.038292747E1,1.732413888E0,-2.376876593E0,-1.879632354E0
1.039296216E1,1.437976837E0,-2.052507162E0,-1.749518037E0
1.040291640E1,1.078177214E0,-1.796554685E0,-1.771509171E0
1.041294932E1,6.737843752E-1,-1.590693116E0,-1.904066920E0
1.042293601E1,2.602286041E-1,-1.438587666E0,-2.101987362E0
1.043293824E1,-1.392772794E-1,-1.379333735E0,-2.334727049E0
1.044292501E1,-5.112941861E-1,-1.382387996E0,-2.551584244E0
1.045296032E1,-8.472700715E-1,-1.368949056E0,-2.722626448E0
1.046294054E1,-1.139263630E0,-1.346346974E0,-2.841134310E0
1.047295169E1,-1.383609772E0,-1.332907915E0,-2.905885935E0
1.048293838E1,-1.596190929E0,-1.323745012E0,-2.933985710E0
1.049294085E1,-1.876578093E0,-1.302364707E0,-2.925433636E0
1.050292739E1,-2.042733431E0,-1.299921274E0,-2.955976963E0
1.051296023E1,-2.185675859E0,-1.254106402E0,-3.011565685E0
1.052294700E1,-2.258979559E0,-1.175915599E0,-3.056769609E0
1.053294954E1,-2.241264582E0,-1.151481032E0,-3.084258556E0
1.054293600E1,-2.175291061E0,-1.158811331E0,-3.076317310E0
1.055296885E1,-2.151467323E0,-1.161254883E0,-3.023172140E0
1.056292492E1,-2.234544992E0,-1.180191636E0,-2.955366135E0
1.057295777E1,-2.411695957E0,-1.320690632E0,-2.912605524E0
1.058294454E1,-2.674978971E0,-1.550986886E0,-2.880840540E0
1.059294700E1,-2.958420277E0,-1.792278647E0,-2.853962421E0
1.060293346E1,-3.171001434E0,-1.988366365E0,-2.836858273E0
1.061296639E1,-3.296228886E0,-2.058615923E0,-2.808758497E0
1.062292246E1,-3.331048250E0,-1.982868552E0,-2.737898111E0
1.063295316E1,-3.251635790E0,-1.799609065E0,-2.643213987E0
1.064294208E1,-3.067154408E0,-1.529606581E0,-2.545475483E0
1.065294216E1,-2.800817251E0,-1.158200502E0,-2.419026375E0
1.066293108E1,-2.484389067E0,-7.464773059E-1,-2.251649380E0
1.067296154E1,-2.144747972E0,-3.176499307E-1,-2.026240110E0
1.068292023E1,-1.819156647E0,1.014036313E-1,-1.751350641E0
1.069295077E1,-1.512502313E0,4.367686510E-1,-1.453859329E0
1.070293962E1,-1.244332552E0,6.328563690E-1,-1.145372391E0
1.071293969E1,-1.032362223E0,6.646214128E-1,-8.069530129E-1
1.072292862E1,-8.680394888E-1,4.960225821E-1,-4.392121136E-1
1.073295931E1,-7.599163651E-1,1.808161139E-1,-4.581489414E-2
1.074291754E1,-7.079927921E-1,-1.576032341E-1,3.567453027E-1
1.075294823E1,-6.633996367E-1,-4.331034720E-1,7.495316267E-1
1.076293716E1,-5.601634383E-1,-6.108652353E-1,1.103833556E0
1.077296823E1,-2.718350291E-1,-6.102544069E-1,1.571756244E0
1.078292616E1,-5.497787148E-3,-4.282165468E-1,1.872912884E0
1.079295692E1,2.987131178E-1,-1.233947799E-1,2.197893143E0
1.080294577E1,6.188064814E-1,2.052507252E-1,2.541199446E0
1.081294608E1,9.279043078E-1,5.149593949E-1,2.877175331E0
1.082293477E1,1.202182770E0,8.002334833E-1,3.180775404E0
1.083296762E1,1.425148606E0,1.052520871E0,3.447112560E0
1.084292369E1,1.594358325E0,1.268767118E0,3.672521830E0
1.085295685E1,1.720196486E0,1.450804949E0,3.839287996E0
1.086294331E1,1.824043632E0,1.620625496E0,3.944356918E0
1.087294554E1,1.930945039E0,1.773341775E0,3.987117529E0
1.088293231E1,2.051285505E0,1.918727756E0,3.986506701E0
1.089296523E1,2.182010651E0,2.021353006E0,3.955352545E0
1.090292146E1,2.301129341E0,2.040900707E0,3.913202763E0
1.091295416E1,2.381763697E0,2.002416372E0,3.880216122E0
1.092294092E1,2.425135136E0,1.926058173E0,3.872885704E0
1.093294339E1,2.435519695E0,1.857641220E0,3.880826950E0
1.094292985E1,2.395813465E0,1.828319669E0,3.888157368E0
1.095296277E1,2.301129341E0,1.831984878E0,3.877772570E0
1.096291900E1,2.165517330E0,1.828930497E0,3.844175100E0
1.097295192E1,2.007914066E0,1.817934990E0,3.773314714E0
1.098293746E1,1.861306429E0,1.819767594E0,3.659082890E0
1.099294023E1,1.734246373E0,1.821600199E0,3.516140461E0
1.100292677E1,1.611462474E0,1.821600199E0,3.364034891E0
1.101295992E1,1.482569933E0,1.807550311E0,3.203988314E0
1.102294639E1,1.347568750E0,1.783726573E0,3.050661087E0
1.103294862E1,1.204626322E0,1.747685432E0,2.907107592E0
1.104293539E1,1.045190454E0,1.685377240E0,2.766608715E0
1.105296831E1,8.704829812E-1,1.599856019E0,2.612670660E0
1.106292454E1,6.756169796E-1,1.477683067E0,2.435519695E0
1.107295746E1,3.164281845E-1,1.265101910E0,2.125200272E0
1.108294454E1,5.925392732E-2,1.093448758E0,1.899180055E0
1.109294677E1,-1.930334121E-1,9.645562172E-1,1.703092337E0
1.110293346E1,-4.269948006E-1,8.142833710E-1,1.524719596E0
1.111296639E1,-6.108652353E-1,6.004805565E-1,1.347568750E0
1.112292246E1,-7.024950385E-1,4.141666293E-1,1.189965487E0
1.113295562E1,-7.092145681E-1,2.577851415E-1,1.081231475E0
1.114294208E1,-6.346889734E-1,1.081231460E-1,1.003040791E0
1.115294454E1,-4.770857692E-1,-7.391469181E-2,9.352346659E-1
1.116293108E1,-2.565633953E-1,-2.919935882E-1,8.845328689E-1
1.117296423E1,-3.970624134E-2,-4.673119187E-1,9.059131742E-1
1.118292000E1,8.246681094E-2,-6.029239893E-1,9.926560521E-1
1.119295292E1,1.014036313E-1,-7.128797174E-1,1.073290229E0
1.120293962E1,1.026253626E-1,-8.436049223E-1,1.139874578E0
1.121293992E1,1.295034289E-1,-1.010371089E0,1.189354658E0
1.122292862E1,1.881465018E-1,-1.186300278E0,1.159422278E0
1.123295993E1,2.510656118E-1,-1.258993268E0,9.382890463E-1
1.124291777E1,2.889392674E-1,-1.155757070E0,4.642575979E-1
1.125294831E1,2.767219543E-1,-9.401215911E-1,-2.058615834E-1
1.126293716E1,2.614503205E-1,-7.287622094E-1,-9.737191796E-1
1.127296854E1,3.176499307E-1,-6.053674817E-1,-1.714698792E0
1.128292616E1,4.709770977E-1,-5.314527750E-1,-2.309070587E0
1.129295716E1,6.914994717E-1,-4.654793143E-1,-2.717128515E0
1.130294577E1,9.346238375E-1,-4.349360466E-1,-2.955366135E0
1.131294800E1,1.150870085E0,-4.025602043E-1,-3.052493572E0
1.132293477E1,1.337794900E0,-3.646865487E-1,-3.047606707E0
1.133296770E1,1.520443559E0,-3.683517575E-1,-2.984687567E0
1.134292370E1,1.706757545E0,-4.263839424E-1,-2.908329487E0
1.135295662E1,1.907732129E0,-5.332853794E-1,-2.872899294E0
1.136294331E1,1.921171188E0,-5.534439087E-1,-2.912605524E0
1.137294800E1,1.818545818E0,-5.528330207E-1,-2.992017984E0
1.138293231E1,1.594358325E0,-5.626068711E-1,-3.087923765E0
1.139296731E1,1.273043156E0,-5.247332454E-1,-3.184440613E0
1.140292123E1,9.285151958E-1,-4.929682612E-1,-3.274237633E0
1.141295439E1,6.053674817E-1,-4.978551865E-1,-3.345708847E0
1.142294085E1,3.262020350E-1,-5.601634383E-1,-3.369532585E0
1.143294116E1,1.227839142E-1,-6.713408828E-1,-3.335324287E0
1.144292985E1,-5.009094998E-2,-7.788531780E-1,-3.306002617E0
1.145296277E1,-2.779437006E-1,-8.368853927E-1,-3.304780960E0
1.146291877E1,-5.400048494E-1,-8.521569967E-1,-3.309667826E0
1.147295170E1,-7.800748944E-1,-8.637634516E-1,-3.299283266E0
1.148293839E1,-9.822713137E-1,-8.827002645E-1,-3.274848461E0
1.149294093E1,-1.142318010E0,-8.741481900E-1,-3.247359753E0
1.150292739E1,-1.240667343E0,-8.515461683E-1,-3.211929560E0
1.151296023E1,-1.279151797E0,-8.491026759E-1,-3.188716650E0
1.152294700E1,-1.274264932E0,-8.399397135E-1,-3.191770792E0
1.153294923E1,-1.237002134E0,-8.319984674E-1,-3.199101210E0
1.154293600E1,-1.172861218E0,-8.393288255E-1,-3.174055815E0
1.155296893E1,-1.081842303E0,-8.674286604E-1,-3.111747503E0
1.156292493E1,-9.651671052E-1,-9.120218158E-1,-3.036000252E0
1.157295570E1,-8.271115422E-1,-9.517280459E-1,-2.960863829E0
1.158294454E1,-6.798930168E-1,-9.627236128E-1,-2.886949062E0
1.159294462E1,-5.338962078E-1,-9.089674950E-1,-2.792876005E0
1.160293347E1,-3.878994286E-1,-7.904596329E-1,-2.653598547E0
1.161299693E1,-2.388483137E-1,-6.420193911E-1,-2.457510948E0
1.162292246E1,-9.773843735E-2,-4.379903674E-1,-2.208277941E0
1.163295316E1,3.909537569E-2,-1.985312104E-1,-1.897958279E0
1.164294208E1,2.034181207E-1,8.307767659E-2,-1.341460109E0
1.165294239E1,2.333505303E-1,1.802052408E-1,-9.291260242E-1
1.166293108E1,1.728748679E-1,1.771509200E-1,-5.070181489E-1
1.167296185E1,2.687807009E-2,6.841690838E-2,-1.026253626E-1
1.168292000E1,-1.765400618E-1,-1.154535338E-1,2.742784917E-1
1.169295100E1,-3.750712574E-1,-2.840523422E-1,5.986479521E-1
1.170293962E1,-5.204572082E-1,-3.940080702E-1,8.234463334E-1
1.171293970E1,-5.900958180E-1,-4.636467099E-1,9.743300676E-1
1.172292862E1,-5.876523852E-1,-4.074471295E-1,1.120326877E0
1.173295970E1,-5.528330207E-1,-1.924225539E-1,1.309695125E0
1.174291777E1,-5.235115290E-1,9.590584040E-2,1.555873752E0
1.175294854E1,-5.119050741E-1,4.037819207E-1,1.833817482E0
1.176293716E1,-5.088507533E-1,6.707300544E-1,2.133752346E0
1.177296793E1,-5.198463202E-1,8.576548100E-1,2.429411173E0
1.178292616E1,-5.326744914E-1,9.779952765E-1,2.696969986E0
1.179295693E1,-5.180137157E-1,1.029918790E0,2.916270733E0
1.180294577E1,-4.917465150E-1,1.015868902E0,3.076317310E0
1.181294824E1,-4.697553813E-1,9.731083512E-1,3.200933933E0
1.182293477E1,-4.508185387E-1,8.888089061E-1,3.302337408E0
1.183296762E1,-4.337143302E-1,8.020660877E-1,3.388469458E0
1.184292370E1,-4.147774875E-1,7.232644558E-1,3.476433992E0
1.185295685E1,-3.946189582E-1,6.633996367E-1,3.572950840E0
1.186294331E1,-3.897320330E-1,6.615670323E-1,3.671300173E0
1.187294554E1,-3.982841372E-1,6.737843752E-1,3.759264708E0
1.188293231E1,-4.208861589E-1,6.786713004E-1,3.830735922E0
1.189296524E1,-4.514294267E-1,6.707300544E-1,3.877772570E0
1.190292147E1,-4.868595898E-1,6.200281978E-1,3.903429031E0
1.191295439E1,-5.302310586E-1,5.082398653E-1,3.893044233E0
1.192294085E1,-5.748242140E-1,3.750712574E-1,3.855170488E0
1.193294331E1,-5.974262357E-1,1.270599663E-1,3.784310102E0
1.194292985E1,-6.047565937E-1,-1.832595654E-2,3.722612858E0
1.195296270E1,-6.017022729E-1,-9.896016866E-2,3.646254539E0
1.196291900E1,-5.809328556E-1,-1.325577646E-1,3.545461893E0
1.197295200E1,-5.467243791E-1,-1.472185254E-1,3.406795502E0
1.198293747E1,-4.972442985E-1,-1.362229437E-1,3.225979328E0
1.199294031E1,-4.257730842E-1,-1.020144969E-1,3.001791716E0
1.200292677E1,-3.426954150E-1,-5.375614017E-2,2.752558708E0
1.201295993E1,-2.608394623E-1,1.527163107E-2,2.506380081E0
1.202294639E1,-1.893682331E-1,1.160643995E-1,2.278527260E0
1.203294885E1,-1.276708394E-1,1.997529417E-1,2.051285505E0
1.204293539E1,-7.635815442E-2,3.304781020E-1,1.795332909E0
1.205296854E1,-5.192354694E-2,4.654793143E-1,1.550375938E0
1.206292454E1,-9.468411654E-2,5.186246037E-1,1.414763927E0
1.207295724E1,-2.449569702E-1,4.453207552E-1,1.441641927E0
1.208294454E1,-4.550946057E-1,2.522873580E-1,1.543656468E0
1.209294485E1,-6.377432942E-1,1.038470957E-2,1.558317184E0
1.210293347E1,-7.721336484E-1,-2.083050460E-1,1.378111959E0
1.211296462E1,-8.234463334E-1,-3.622430861E-1,9.834930301E-1
1.212292247E1,-7.922922373E-1,-4.740314186E-1,4.111123085E-1
1.213295385E1,-7.000515461E-1,-6.175847650E-1,-2.247984111E-1
1.214294208E1,-5.424483418E-1,-7.831292152E-1,-8.142833710E-1
1.215294277E1,-3.304781020E-1,-9.120218158E-1,-1.347568750E0
1.216293108E1,-1.191187203E-1,-9.718865752E-1,-1.838704348E0
1.217296177E1,8.307767659E-2,-9.804387093E-1,-2.284636021E0
1.218292001E1,3.182607889E-1,-9.419541955E-1,-2.656652927E0
1.219295077E1,5.937610269E-1,-8.961393237E-1,-2.915048838E0
1.220293962E1,8.967501521E-1,-8.399397135E-1,-3.078150034E0
1.221294216E1,1.202182770E0,-7.623597980E-1,-3.161838531E0
1.222292862E1,1.615738630E0,-6.053674817E-1,-3.184440613E0
1.223296147E1,1.827708840E0,-4.538728893E-1,-3.127019167E0
1.224291777E1,1.959044814E0,-2.907718420E-1,-3.006678820E0
1.225295070E1,1.998140216E0,-1.429424733E-1,-2.878396988E0
1.226293724E1,1.949270964E0,-1.466076635E-2,-2.778825998E0
1.227297008E1,1.847867370E0,5.803219974E-2,-2.729345798E0
1.228292616E1,1.727526903E0,6.169738993E-2,-2.742784977E0
1.229295908E1,1.605353832E0,2.138028294E-2,-2.813645363E0
1.230294577E1,1.505172014E0,-3.665191308E-2,-2.935207605E0
1.231294793E1,1.453248382E0,-1.038470939E-1,-3.101362944E0
1.232293477E1,1.458135366E0,-1.411098689E-1,-3.301726580E0
1.233296770E1,1.511891484E0,-1.496619880E-1,-3.502701283E0
1.234292370E1,1.604743004E0,-1.264491081E-1,-3.634648323E0
1.235295662E1,1.710422635E0,-1.160643995E-1,-3.635869980E0
1.236294331E1,1.799609065E0,-1.612684280E-1,-3.496592760E0
1.237294339E1,1.864360690E0,-2.351831198E-1,-3.249192238E0
1.238293231E1,1.869247675E0,-3.194825351E-1,-2.957809448E0
1.239296308E1,1.745242000E0,-3.506366611E-1,-2.673146248E0
1.240292124E1,1.462411404E0,-3.207042515E-1,-2.409863472E0
1.241295416E1,1.078788042E0,-2.987131178E-1,-2.207056046E0
1.242294085E1,6.737843752E-1,-3.017674387E-1,-2.132530689E0
1.243294308E1,2.981022298E-1,-3.365867436E-1,-2.190562725E0
1.244292985E1,-1.466076635E-2,-4.257730842E-1,-2.321898699E0
1.245296278E1,-2.461786866E-1,-6.041457057E-1,-2.464841366E0
1.246291878E1,-4.105014503E-1,-7.898487449E-1,-2.600453377E0
1.247295170E1,-5.375614166E-1,-9.468411207E-1,-2.718350410E0
1.248293839E1,-6.078109145E-1,-1.083674908E0,-2.817921400E0
1.249294062E1,-5.943718553E-1,-1.187522054E0,-2.901609898E0
1.250292739E1,-4.954117239E-1,-1.248608589E0,-2.966361523E0
1.251296031E1,-2.119702399E-1,-1.177137375E0,-3.026226521E0
1.252294701E1,2.138028294E-2,-9.981538057E-1,-2.994461536E0
1.253294739E1,2.669481039E-1,-7.458664775E-1,-2.858238459E0
1.254293601E1,5.088507533E-1,-4.477642179E-1,-2.598009825E0
1.255296670E1,7.165449262E-1,-1.087340117E-1,-2.185065031E0
1.256292493E1,8.533787727E-1,2.663372457E-1,-1.631010175E0
1.257295593E1,8.686503768E-1,6.444628239E-1,-9.816604257E-1
1.258294454E1,7.409795523E-1,9.101892114E-1,-3.262020350E-1
1.259294454E1,4.886921942E-1,9.865473509E-1,2.241875380E-1
1.260293347E1,1.545489132E-1,9.199630618E-1,6.328563690E-1
1.261296639E1,-2.284636050E-1,7.422012687E-1,9.279043078E-1
1.262292247E1,-6.310238242E-1,4.795292318E-1,1.137431145E0
1.263295324E1,-1.014036298E0,2.211332172E-1,1.285260439E0
1.264294216E1,-1.307251573E0,2.565634064E-2,1.407433510E0
1.265294239E1,-1.478293896E0,-5.681046844E-2,1.526552200E0
1.266293108E1,-1.563204169E0,-4.520402849E-2,1.682322860E0
1.267296185E1,-1.601688623E0,7.513642311E-2,1.905288696E0
1.268292001E1,-1.623679876E0,2.596177161E-1,2.175291061E0
1.269295101E1,-1.635286212E0,4.679227769E-1,2.444071770E0
1.270293962E1,-1.631010175E0,6.633996367E-1,2.702467918E0
1.271294185E1,-1.611462474E0,8.081747293E-1,2.962085485E0
1.272292862E1,-1.591914773E0,9.413433671E-1,3.219259739E0
1.273296178E1,-1.577864885E0,1.044579625E0,3.461773396E0
1.274291755E1,-1.550986886E0,1.093448758E0,3.678019524E0
1.275295047E1,-1.509448051E0,1.089172721E0,3.844785929E0
1.276293716E1,-1.450194120E0,1.032973170E0,3.961461067E0
1.277297008E1,-1.366505504E0,9.450085163E-1,4.045149803E0
1.278292616E1,-1.259604096E0,8.307767510E-1,4.114788055E0
1.279295908E1,-1.138652802E0,7.367035151E-1,4.186870575E0
1.280294578E1,-9.511171579E-1,6.719517708E-1,4.329813004E0
1.281294824E1,-8.222246170E-1,6.572909951E-1,4.456262112E0
1.282293478E1,-6.908885837E-1,6.505714655E-1,4.602258682E0
1.283296739E1,-5.552765131E-1,6.890559793E-1,4.765970707E0
1.284292370E1,-4.233296216E-1,7.666358948E-1,4.911967278E0
1.285295685E1,-3.090978265E-1,8.326093554E-1,4.985271454E0
1.286294331E1,-2.205223590E-1,8.888089061E-1,4.948008537E0
1.287294554E1,-1.374446750E-1,9.535606503E-1,4.811174870E0
1.288293231E1,-4.092797264E-2,1.037249207E0,4.619973660E0
1.289296308E1,6.963863969E-2,1.104444385E0,4.412279606E0
1.290292147E1,1.832595766E-1,1.131933331E0,4.195422649E0
1.291295224E1,2.974913716E-1,1.160643935E0,3.956574202E0
1.292294093E1,4.184426963E-1,1.184467673E0,3.695734739E0
1.293294147E1,5.510004759E-1,1.175915599E0,3.419623613E0
1.294292985E1,6.866125464E-1,1.144761443E0,3.144734383E0
1.295296085E1,7.929030657E-1,1.099557400E0,2.877786160E0
1.296291901E1,8.472700715E-1,1.041525245E0,2.612059832E0
1.297294978E1,8.271115422E-1,9.767735004E-1,2.343889952E0
1.298293747E1,7.409795523E-1,9.046914577E-1,2.097711325E0
1.299294024E1,6.102544069E-1,7.837401032E-1,1.871080279E0
1.300292701E1,4.386012554E-1,6.420193911E-1,1.644449234E0
1.301295970E1,2.351831198E-1,5.064072609E-1,1.425759435E0
1.302294639E1,2.199114859E-2,3.665191531E-1,1.223563075E0
1.303294885E1,-1.716531366E-1,1.954768747E-1,1.029918790E0
1.304293539E1,-3.194825351E-1,-2.382374369E-2,8.356636763E-1
1.305296616E1,-4.147774875E-1,-2.504547536E-1,6.304129362E-1
1.306292455E1,-4.618141353E-1,-4.428772926E-1,3.897320330E-1
1.307295501E1,-4.489859641E-1,-5.937610269E-1,1.014036313E-1
1.308294454E1,-3.732386529E-1,-7.067710757E-1,-2.156354338E-1
1.309294485E1,-1.850921661E-1,-8.246681094E-1,-6.853908300E-1
1.310293347E1,-5.253441259E-2,-8.973610401E-1,-9.572258592E-1
1.311296424E1,6.597344577E-2,-9.327912331E-1,-1.218065262E0
1.312292247E1,1.685988009E-1,-9.804387093E-1,-1.483791709E0
1.313295347E1,2.510656118E-1,-1.045190454E0,-1.739744186E0
1.314294208E1,3.353650272E-1,-1.115439892E0,-1.968207836E0
1.315294239E1,4.538728893E-1,-1.196074128E0,-2.160019398E0
1.316293108E1,6.377432942E-1,-1.289536476E0,-2.310292244E0
1.317296424E1,9.089674950E-1,-1.378111959E0,-2.417193890E0
1.318292024E1,1.215621829E0,-1.433700681E0,-2.494773626E0
1.319295293E1,1.494787216E0,-1.407433510E0,-2.537534237E0
1.320293962E1,1.684155464E0,-1.306640744E0,-2.565634012E0
1.321294208E1,1.744631171E0,-1.171028733E0,-2.603507757E0
1.322292862E1,1.663996935E0,-1.033583999E0,-2.665205002E0
1.323296155E1,1.457524419E0,-9.578366876E-1,-2.769052267E0
1.324291755E1,1.176526427E0,-9.566149712E-1,-2.919935942E0
1.325295047E1,8.741481900E-1,-1.032362223E0,-3.119077921E0
1.326293716E1,5.907067060E-1,-1.180191636E0,-3.352428436E0
1.327297232E1,3.347541690E-1,-1.365283847E0,-3.587611675E0
1.328292616E1,1.062905490E-1,-1.536936998E0,-3.803857803E0
1.329295932E1,-9.651670605E-2,-1.678657651E0,-4.002388954E0
1.330294578E1,-2.816088796E-1,-1.815491557E0,-4.182594299E0
1.331294801E1,-4.667010605E-1,-1.904677868E0,-4.325536728E0
1.332293470E1,-6.591235995E-1,-1.927890658E0,-4.416555882E0
1.333296793E1,-8.594874144E-1,-1.885130167E0,-4.439768791E0
1.334292370E1,-1.054353356E0,-1.772730947E0,-4.395175457E0
1.335295662E1,-1.226617455E0,-1.613906026E0,-4.324315071E0
1.336294339E1,-1.372003317E0,-1.414153099E0,-4.252233028E0
1.337294555E1,-1.474017859E0,-1.177748203E0,-4.173431396E0
1.338293232E1,-1.521665335E0,-8.038986921E-1,-4.037819386E0
1.339296516E1,-1.479515672E0,-5.833762884E-1,-3.930306911E0
1.340292124E1,-1.378111959E0,-4.239404798E-1,-3.795305729E0
1.341295224E1,-1.241889000E0,-3.359758854E-1,-3.634648323E0
1.342294085E1,-1.098946571E0,-3.225368559E-1,-3.447112560E0
1.343294116E1,-9.651671052E-1,-3.610213697E-1,-3.224757671E0
1.344292985E1,-8.429940343E-1,-4.667010605E-1,-2.957809448E0
1.345296085E1,-7.483099103E-1,-6.175847650E-1,-2.643213987E0
1.346291878E1,-6.737843752E-1,-7.971791625E-1,-2.291355610E0
1.347294955E1,-6.188064814E-1,-9.547823668E-1,-1.921782017E0
1.348293839E1,-5.601634383E-1,-1.021977544E0,-1.550986886E0
1.349293878E1,-4.728097022E-1,-9.969320893E-1,-1.215621829E0
1.350292739E1,-3.555235863E-1,-9.053022861E-1,-9.321803451E-1
1.351295816E1,-2.168571651E-1,-7.531968355E-1,-7.012733221E-1
1.352294701E1,-5.742133409E-2,-5.607742667E-1,-5.296201706E-1
1.353294708E1,9.101892263E-2,-3.665191531E-1,-3.860668242E-1
1.354293601E1,1.850921661E-1,-2.070833147E-1,-2.394591719E-1
1.355296670E1,2.083050460E-1,-1.130100712E-1,-7.513642311E-2
1.356292493E1,1.881465018E-1,-7.635815442E-2,1.350012124E-1
1.357295562E1,1.539380401E-1,-5.681046844E-2,3.921754956E-1
1.358294455E1,1.069014147E-1,-1.160643995E-2,6.817256212E-1
1.359294485E1,4.398229718E-2,7.391469181E-2,9.963212013E-1
1.360293347E1,-2.626720630E-2,1.966986060E-1,1.339627504E0
1.361299693E1,-1.178969890E-1,3.634648323E-1,1.692096710E0
1.362292247E1,-2.327396572E-1,5.369505286E-1,2.046398640E0
1.363295324E1,-3.457497358E-1,6.829473376E-1,2.377487421E0
1.364294209E1,-4.483750761E-1,7.703011036E-1,2.649933338E0
1.365294462E1,-5.381723046E-1,8.594874144E-1,2.878396988E0
1.366293108E1,-6.108652353E-1,9.419541955E-1,3.092810631E0
1.367296393E1,-6.383541822E-1,1.001208186E0,3.366478443E0
1.368292001E1,-6.175847650E-1,9.566149712E-1,3.499646902E0
1.369295293E1,-5.668829679E-1,8.655960560E-1,3.599828959E0
1.370293962E1,-4.862487316E-1,7.391469479E-1,3.668245792E0
1.371294209E1,-3.878994286E-1,5.919284225E-1,3.734830141E0
1.372292862E1,-2.846632004E-1,4.630358517E-1,3.805690527E0
1.373296178E1,-1.936442852E-1,3.536909819E-1,3.887546301E0
1.374291778E1,-1.258382350E-1,3.145956099E-1,3.979787111E0
1.375295047E1,-6.169738993E-2,3.371976018E-1,4.084856033E0
1.376293716E1,6.719517522E-3,4.056145251E-1,4.185037613E0
1.377297016E1,9.040805697E-2,5.100724697E-1,4.266893864E0
1.378292616E1,1.808161139E-1,6.340781450E-1,4.319427967E0
1.379295909E1,2.553416789E-1,7.635815740E-1,4.346917152E0
1.380294578E1,3.097086847E-1,8.484918475E-1,4.345084667E0
1.381294832E1,3.494149148E-1,9.028588533E-1,4.302323818E0
1.382293478E1,3.665191531E-1,9.535606503E-1,4.218635559E0
1.383296555E1,3.677408695E-1,9.889908433E-1,4.093408108E0
1.384292370E1,3.585779071E-1,9.999864101E-1,3.926030874E0
1.385295470E1,3.463605940E-1,9.810495973E-1,3.726888895E0
1.386294332E1,3.335324228E-1,9.309586287E-1,3.497203588E0
1.387294339E1,3.170390725E-1,8.649851680E-1,3.237585783E0
1.388293224E1,3.023782969E-1,7.776314616E-1,2.954755306E0
1.389296332E1,2.852740586E-1,6.682865620E-1,2.633440018E0
1.390292147E1,2.504547536E-1,5.699372888E-1,2.279138327E0
1.391295201E1,2.199114859E-1,4.789183438E-1,1.910175562E0
1.392294086E1,1.960877478E-1,3.921754956E-1,1.543656468E0
1.393294116E1,1.514945775E-1,2.974913716E-1,1.188132882E0
1.394292986E1,6.047565863E-2,2.125810981E-1,8.497135639E-1
1.395296301E1,-7.513642311E-2,1.374446750E-1,5.418374538E-1
1.396291901E1,-3.078760803E-1,1.404990070E-2,1.606575549E-1
1.397295170E1,-4.563163519E-1,-9.224065393E-2,-1.343903504E-2
1.398293747E1,-5.815436840E-1,-2.394591719E-1,-1.661553532E-1
1.399294024E1,-6.621779203E-1,-3.982841372E-1,-2.938261926E-1
1.400292678E1,-6.750060916E-1,-5.693264008E-1,-3.659082949E-1
1.401295970E1,-6.487388611E-1,-7.464773059E-1,-4.074471295E-1
1.402294639E1,-6.169738770E-1,-9.199630618E-1,-4.459316432E-1
1.403294863E1,-5.668829679E-1,-1.122159481E0,-5.186246037E-1
1.404293539E1,-4.483750761E-1,-1.338405728E0,-6.395758986E-1
1.405296832E1,-2.046398520E-1,-1.550986886E0,-7.672467232E-1
1.406292455E1,1.808161139E-1,-1.679268599E0,-9.059131742E-1
1.407295509E1,6.621779203E-1,-1.696372747E0,-1.046412110E0
1.408294463E1,1.163087368E0,-1.590082288E0,-1.215621829E0
1.409294463E1,1.614516854E0,-1.370781660E0,-1.455080986E0
1.410293347E1,2.001805305E0,-1.083674908E0,-1.729359508E0
1.411296616E1,2.314568520E0,-7.635815740E-1,-1.974927306E0
1.412292247E1,2.509434462E0,-4.532620013E-1,-2.153910875E0
1.413295755E1,2.527149439E0,-1.582140923E-1,-2.243708134E0
1.414294209E1,2.346333504E0,8.307767659E-2,-2.263866663E0
1.415294639E1,2.011579275E0,2.504547536E-1,-2.250427485E0
1.416293109E1,1.610240817E0,2.834414840E-1,-2.252871037E0
1.417296639E1,1.193630695E0,1.459967941E-1,-2.309681416E0
1.418292001E1,7.990117669E-1,-1.166752651E-1,-2.425745964E0
1.419295509E1,4.502076805E-1,-4.367686510E-1,-2.576629639E0
1.420293962E1,1.472185254E-1,-7.892379165E-1,-2.753780603E0
1.421294424E1,-1.331686229E-1,-1.131322384E0,-2.939483643E0
1.422292863E1,-3.952298164E-1,-1.384220600E0,-3.115412712E0
1.423296362E1,-6.426302195E-1,-1.557095528E0,-3.277292013E0
1.424291778E1,-8.881980777E-1,-1.681101203E0,-3.419623613E0
1.425295070E1,-1.259604096E0,-1.789224267E0,-3.548516273E0
1.426293724E1,-1.468520045E0,-1.783115625E0,-3.575394392E0
1.427297009E1,-1.628566742E0,-1.703703165E0,-3.562566042E0
1.428292616E1,-1.745242000E0,-1.581530094E0,-3.526525021E0
1.429295909E1,-1.820989251E0,-1.414763927E0,-3.492316723E0
1.430294578E1,-1.844202161E0,-1.214400053E0,-3.473379850E0
1.431294801E1,-1.806939363E0,-1.018312335E0,-3.467271090E0
1.432293478E1,-1.715920448E0,-8.228355050E-1,-3.465438604E0
1.433296793E1,-1.594358325E0,-6.450737119E-1,-3.469714642E0
1.434292370E1,-1.458746195E0,-4.917465150E-1,-3.485597134E0
1.435295663E1,-1.298699498E0,-3.811798990E-1,-3.501479626E0
1.436294332E1,-1.109942198E0,-3.011565804E-1,-3.486818790E0
1.437294586E1,-8.827002645E-1,-2.535090744E-1,-3.437949657E0
1.438293224E1,-6.322455406E-1,-2.076941878E-1,-3.355482817E0
1.439296301E1,-3.720169365E-1,-1.514945775E-1,-3.234531403E0
1.440292124E1,-1.209513173E-1,-9.407325089E-2,-3.067765236E0
1.441295201E1,9.651670605E-2,-1.710422710E-2,-2.838690758E0
1.442294086E1,2.877175212E-1,8.368854225E-2,-2.528371334E0
1.443294116E1,4.557054639E-1,2.046398520E-1,-2.136806726E0
1.444293009E1,5.674937963E-1,3.488040566E-1,-1.706146598E0
1.445296055E1,6.157521605E-1,4.575380683E-1,-1.287093043E0
1.446291878E1,6.126978397E-1,5.161811113E-1,-8.985827565E-1
1.447294955E1,5.638286471E-1,5.613851547E-1,-5.503895879E-1
1.448293840E1,4.709770977E-1,5.137376785E-1,-2.382374406E-1
1.449293847E1,3.439171314E-1,3.494149148E-1,4.276056588E-2
1.450292740E1,1.960877478E-1,1.521054506E-1,3.121521473E-1
1.451295809E1,4.948008433E-2,-4.642575979E-2,5.742133260E-1
1.452294701E1,-1.056796908E-1,-2.193006277E-1,8.368853927E-1
1.453294740E1,-2.626720667E-1,-3.207042515E-1,1.101390004E0
1.454293601E1,-4.489859641E-1,-2.871066630E-1,1.543045640E0
1.455296678E1,-5.186246037E-1,-1.582140923E-1,1.861917257E0
1.456292493E1,-5.577199459E-1,4.886921961E-3,2.177123785E0
1.457295570E1,-5.693264008E-1,1.722639948E-1,2.473393440E0
1.458294455E1,-5.577199459E-1,3.390302062E-1,2.751947880E0
1.459294463E1,-5.210680366E-1,4.880813360E-1,3.007289648E0
1.460293347E1,-4.636467099E-1,6.047565937E-1,3.227200985E0
1.461296670E1,-3.848451078E-1,7.006624341E-1,3.409238815E0
1.462292270E1,-2.895501256E-1,7.513642311E-1,3.555235624E0
1.463295540E1,-1.912008226E-1,7.678576112E-1,3.654806852E0
1.464294209E1,-8.735372871E-2,7.672467232E-1,3.720169306E0
1.465294455E1,3.054326214E-2,7.464773059E-1,3.769038677E0
1.466293109E1,1.514945775E-1,7.098253965E-1,3.821573019E0
1.467296401E1,2.577851415E-1,6.798930168E-1,3.877772570E0
1.468292001E1,3.347541690E-1,6.670648456E-1,3.942524195E0
1.469295316E1,3.878994286E-1,6.597344875E-1,4.013384819E0
1.470293963E1,4.227187634E-1,6.951646209E-1,4.083023071E0
1.471294186E1,4.526511431E-1,7.684684992E-1,4.141666412E0
1.472292863E1,4.862487316E-1,8.368853927E-1,4.186259747E0
1.473296178E1,5.235115290E-1,8.863654733E-1,4.207639694E0
1.474291778E1,5.552765131E-1,9.162978530E-1,4.194811821E0
1.475295047E1,5.791002512E-1,9.358455539E-1,4.142888069E0
1.476293716E1,5.882632136E-1,9.468411207E-1,4.054923534E0
1.477297009E1,5.833762884E-1,9.566149712E-1,3.941913366E0
1.478292617E1,5.656611919E-1,9.608910084E-1,3.808744907E0
1.479295693E1,5.338962078E-1,9.468411207E-1,3.646865606E0
1.480294586E1,4.783074856E-1,9.437867999E-1,3.427564859E0
1.481294586E1,4.019493461E-1,9.572258592E-1,3.152064562E0
1.482293478E1,3.231477141E-1,9.602801800E-1,2.830749512E0
1.483296547E1,1.887573600E-1,9.114109278E-1,2.286468506E0
1.484292370E1,6.841690838E-2,8.778133392E-1,1.888795376E0
1.485295470E1,-7.147123665E-2,8.460483551E-1,1.491732955E0
1.486294332E1,-2.125810981E-1,7.837401032E-1,1.148426652E0
1.487294555E1,-3.579670191E-1,6.817256212E-1,8.851437569E-1
1.488293232E1,-4.984660447E-1,5.430592299E-1,6.835582256E-1
1.489296524E1,-6.365215778E-1,3.744603992E-1,5.485569835E-1
1.490292124E1,-7.721336484E-1,1.618792862E-1,4.874704778E-1
1.491295409E1,-9.205739498E-1,-1.123992056E-1,4.721988440E-1
1.492294093E1,-1.108109593E0,-3.805690408E-1,4.807509482E-1
1.493294309E1,-1.302364707E0,-6.420193911E-1,4.764748812E-1
1.494292986E1,-1.441641927E0,-9.065240026E-1,4.013384581E-1
1.495296055E1,-1.505172014E0,-1.174693823E0,2.785545588E-1
1.496291901E1,-1.496008992E0,-1.417207360E0,1.075122803E-1
1.497294955E1,-1.415985584E0,-1.613906026E0,-1.350012124E-1
1.498293747E1,-1.280984402E0,-1.736689925E0,-4.783074856E-1
1.499293847E1,-1.071457624E0,-1.765400529E0,-9.285151958E-1
1.500292678E1,-7.666358948E-1,-1.716531396E0,-1.439198494E0
1.501295755E1,-3.591887653E-1,-1.632231951E0,-1.957212210E0
1.502294647E1,1.233947799E-1,-1.511280656E0,-2.406198263E0
1.503294886E1,6.401867867E-1,-1.333518863E0,-2.722015619E0
1.504293540E1,1.142928839E0,-1.163698316E0,-2.885727406E0
1.505296832E1,1.579697490E0,-9.779952765E-1,-2.899166346E0
1.506292455E1,1.868636727E0,-7.489207983E-1,-2.783102036E0
1.507295747E1,1.978592515E0,-5.283984542E-1,-2.610227108E0
1.508294455E1,1.909564734E0,-3.164281845E-1,-2.469117403E0
1.509294916E1,1.689042449E0,-1.276708394E-1,-2.401311398E0
1.510293347E1,1.378111959E0,-4.459316283E-2,-2.426967621E0
1.511296832E1,8.686503768E-1,-7.269296050E-2,-2.579072952E0
1.512292247E1,5.626068711E-1,-1.459967941E-1,-2.689028740E0
1.513295563E1,3.127630055E-1,-2.602286041E-1,-2.767219543E0
1.514294209E1,1.264491081E-1,-4.147774875E-1,-2.778215170E0
1.515294240E1,-3.665191587E-3,-5.760459304E-1,-2.718961239E0
1.516293109E1,-1.123992056E-1,-7.415903807E-1,-2.626109600E0
1.517296186E1,-2.382374406E-1,-8.857545853E-1,-2.538145065E0
1.518292024E1,-3.964515328E-1,-9.877691269E-1,-2.480723858E0
1.519295078E1,-5.748242140E-1,-1.048244715E0,-2.457510948E0
1.520293970E1,-7.678576112E-1,-1.105666041E0,-2.461786985E0
1.521293994E1,-9.511171579E-1,-1.154535294E0,-2.483778000E0
1.522292863E1,-1.087950945E0,-1.156978726E0,-2.538755894E0
1.523296147E1,-1.162476540E0,-1.102611780E0,-2.616946697E0
1.524291778E1,-1.205237150E0,-9.767735004E-1,-2.714685202E0
1.525295070E1,-1.243110776E0,-7.935139537E-1,-2.809980154E0
1.526293717E1,-1.255938888E0,-6.261368990E-1,-2.841745138E0
1.527296801E1,-1.217454433E0,-5.021312237E-1,-2.723848104E0
1.528292617E1,-1.124602914E0,-4.758640230E-1,-2.466673851E0
1.529295717E1,-9.657779336E-1,-5.070181489E-1,-2.150856495E0
1.530294578E1,-7.489207983E-1,-5.302310586E-1,-1.897347450E0
1.531294586E1,-5.002986193E-1,-5.583308339E-1,-1.773341775E0
1.532293478E1,-2.278527319E-1,-5.583308339E-1,-1.751961470E0
1.533296555E1,5.497787148E-2,-4.489859641E-1,-1.760513663E0
1.534292370E1,3.756821156E-1,-2.840523422E-1,-1.746463776E0
1.535295417E1,7.318165898E-1,-1.062905490E-1,-1.648114443E0
1.536294332E1,1.099557400E0,1.062905490E-1,-1.425759435E0
1.537294340E1,1.432479024E0,3.414736688E-1,-1.062905550E0
1.538293232E1,1.663996935E0,5.296201706E-1,-6.304129362E-1
1.539296278E1,1.725083470E0,6.743952036E-1,-2.247984111E-1
1.540292147E1,1.604743004E0,8.063421249E-1,1.178969890E-1
1.541295201E1,1.149037480E0,6.798930168E-1,5.320636034E-1
1.542294086E1,6.780604124E-1,4.905247986E-1,7.452555895E-1
1.543294309E1,1.313360333E-1,2.858849466E-1,9.046914577E-1
1.544292986E1,-3.891211748E-1,4.031710699E-2,1.006095052E0
1.545296086E1,-8.069530129E-1,-1.820378453E-1,1.073901057E0
1.546291878E1,-1.083064079E0,-2.944370508E-1,1.136209369E0
1.547294955E1,-1.214400053E0,-2.266310006E-1,1.204626322E0
1.548293847E1,-1.206458807E0,1.771509275E-2,1.282206178E0
1.549252208E1,-1.081231475E0,3.628539443E-1,1.379944563E0
1.550251077E1,-8.875871897E-1,7.385360599E-1,1.513724089E0
1.551254154E1,-6.664539576E-1,1.110553026E0,1.687820673E0
1.552253039E1,-4.605923891E-1,1.454470158E0,1.897958279E0
1.553253069E1,-2.901609838E-1,1.740965962E0,2.133141518E0
1.554251939E1,-1.728748679E-1,1.932777643E0,2.375654936E0
1.555255016E1,-1.301143020E-1,2.037235498E0,2.596788168E0
1.556250831E1,-1.521054506E-1,2.018909693E0,2.776993513E0
1.557253931E1,-2.046398520E-1,1.919949412E0,2.894279480E0
1.558252792E1,-2.938261926E-1,1.803885102E0,2.957198620E0
1.559252823E1,-3.652974069E-1,1.590082288E0,3.001791716E0
1.560251685E1,-4.190535545E-1,1.328631878E0,3.064710855E0
1.561257846E1,-4.813618064E-1,1.106887817E0,3.154508114E0
1.562250585E1,-5.491678715E-1,9.505063295E-1,3.246748686E0
1.563253877E1,-6.108652353E-1,8.362745047E-1,3.325550318E0
1.564252546E1,-6.438519955E-1,7.440338731E-1,3.382971764E0
1.565252800E1,-6.352998614E-1,6.737843752E-1,3.423288822E0
1.566251446E1,-5.894849896E-1,6.224716902E-1,3.456886530E0
1.567254731E1,-5.076290369E-1,5.754350424E-1,3.496592760E0
1.568250339E1,-3.885102868E-1,5.180137157E-1,3.542407513E0
1.569253654E1,-1.765400618E-1,5.045747161E-1,3.594941854E0
1.570252300E1,-4.948008433E-2,5.485569835E-1,3.600439787E0
1.571252523E1,5.681046844E-2,5.821545720E-1,3.574172497E0
1.572251200E1,1.514945775E-1,5.992587805E-1,3.521638155E0
1.573254516E1,2.284636050E-1,5.931501389E-1,3.445280075E0
1.574250116E1,2.809980214E-1,5.760459304E-1,3.334102392E0
1.575253385E1,3.188716471E-1,5.876523852E-1,3.197268724E0
1.576252054E1,3.512475193E-1,6.145304441E-1,3.025615454E0
1.577255346E1,3.610213697E-1,6.469063163E-1,2.821586609E0
1.578250977E1,3.481931984E-1,6.731734872E-1,2.587014198E0
1.579254246E1,3.139847219E-1,6.945537925E-1,2.334727049E0
1.580252916E1,2.492330223E-1,7.257078886E-1,2.084272146E0
1.581252954E1,1.832595766E-1,8.136724830E-1,1.816102386E0
1.582251816E1,1.404990107E-1,9.419541955E-1,1.514945865E0
1.583254885E1,1.380555481E-1,1.113607287E0,1.183856845E0
1.584250708E1,1.692096740E-1,1.342070937E0,8.008443117E-1
1.585253777E1,1.606575549E-1,1.580919266E0,3.390302062E-1
1.586252669E1,3.420845419E-2,1.737300754E0,-1.612684280E-1
1.587252893E1,-3.811798990E-1,1.274875760E0,-6.108652353E-1
1.588251569E1,-8.045095205E-1,7.562511563E-1,-9.224064946E-1
1.589254646E1,-9.291260242E-1,6.420193911E-1,-1.194241524E0
1.590250462E1,-8.148942590E-1,8.295549750E-1,-1.494787216E0
1.591253539E1,-6.426302195E-1,9.492846131E-1,-1.758681059E0
1.592252431E1,-5.619960427E-1,7.782423496E-1,-1.973705649E0
1.593252462E1,-5.540547967E-1,4.080579877E-1,-2.191784382E0
1.594251323E1,-4.911356568E-1,-2.687807009E-2,-2.409863472E0
1.595254392E1,-3.219259977E-1,-4.447098970E-1,-2.601675034E0
1.596250239E1,-4.337143153E-2,-7.843509912E-1,-2.757445812E0
1.597253323E1,3.084869385E-1,-1.033583999E0,-2.886949062E0
1.598252085E1,8.338310719E-1,-1.263880134E0,-3.026837349E0
1.599252369E1,1.125824690E0,-1.386053205E0,-3.078760862E0
1.600251039E1,1.359786034E0,-1.490511179E0,-3.118467093E0
1.601254092E1,1.518000126E0,-1.522276163E0,-3.190549135E0
1.602252977E1,1.361618638E0,-1.863749862E0,-3.396410704E0
1.603253008E1,1.381166339E0,-1.764178872E0,-3.471547127E0
1.604251877E1,1.468520045E0,-1.554652095E0,-3.640146017E0
1.605254985E1,1.582751870E0,-1.299921274E0,-3.904650688E0
1.606250793E1,1.668883801E0,-1.087340117E0,-4.176485538E0
1.607253846E1,1.674381614E0,-8.912523985E-1,-4.356690884E0
1.608252792E1,1.662775159E0,-7.800748944E-1,-4.500244141E0
1.609253039E1,1.647503614E0,-7.849618196E-1,-4.580878258E0
1.610251685E1,1.606575608E0,-8.906415105E-1,-4.593706608E0
1.611254985E1,1.508226275E0,-1.050077319E0,-4.537507057E0
1.612250585E1,1.334129691E0,-1.194241524E0,-4.442822933E0
1.613253900E1,1.078177214E0,-1.333518863E0,-4.322482586E0
1.614252546E1,7.678576112E-1,-1.439809442E0,-4.197865963E0
1.615252793E1,4.068362415E-1,-1.508226275E0,-4.126394749E0
1.616251446E1,3.176499158E-2,-1.516778350E0,-4.108068943E0
1.617254762E1,-3.029891551E-1,-1.349401355E0,-4.143498898E0
1.618250339E1,-5.931501389E-1,-1.133765936E0,-4.139833927E0
1.619253631E1,-7.715228200E-1,-1.076344609E0,-4.069584370E0
1.620252308E1,-8.930850029E-1,-1.014036298E0,-3.927863598E0
1.621252546E1,-1.022588372E0,-9.016370773E-1,-3.742160559E0
1.622251200E1,-1.114218235E0,-7.440338731E-1,-3.551570654E0
1.623254485E1,-1.148426652E0,-5.595525503E-1,-3.340211153E0
1.624250093E1,-1.111774802E0,-3.995058835E-1,-3.107471466E0
1.625253385E1,-9.896016717E-1,-5.766568184E-1,-2.846021175E0
1.626252054E1,-8.069530129E-1,-6.273586154E-1,-2.582127333E0
1.627255139E1,-4.318817258E-1,-6.316346526E-1,-2.182010651E0
1.628250954E1,-2.241875380E-1,-6.212499738E-1,-1.908343077E0
1.629254054E1,-5.009094998E-2,-5.784893632E-1,-1.657888293E0
1.630252916E1,7.391469181E-2,-5.216789246E-1,-1.412320495E0
1.631252923E1,1.563815027E-1,-4.795292318E-1,-1.178969979E0
1.632251816E1,2.186897546E-1,-3.897320330E-1,-9.706648588E-1
1.633254893E1,2.803871334E-1,-2.547308207E-1,-8.002334833E-1
1.634250708E1,3.188716471E-1,-8.307767659E-2,-6.352998614E-1
1.635253785E1,3.451388776E-1,8.368854225E-2,-4.709770977E-1
1.636252670E1,3.469714522E-1,2.003637999E-1,-3.231477141E-1
1.637252700E1,3.231477141E-1,2.357939780E-1,-1.606575549E-1
1.638251570E1,2.816088796E-1,2.083050460E-1,3.726277873E-2
1.639254616E1,2.290744632E-1,1.484402567E-1,2.687807083E-1
1.640250462E1,1.826487035E-1,7.757988572E-2,5.271766782E-1
1.641253562E1,1.484402567E-1,2.626720630E-2,7.922922373E-1
1.642252423E1,1.117883399E-1,3.176499158E-2,1.084285855E0
1.643252454E1,9.468411654E-2,1.282816976E-1,1.431257248E0
1.644251323E1,1.105666086E-1,3.207042515E-1,1.833817482E0
1.645254423E1,1.282816976E-1,5.778785348E-1,2.285857677E0
1.646250216E1,1.191187203E-1,8.607091308E-1,2.753169775E0
1.647253316E1,8.796459436E-2,1.144150615E0,3.191770792E0
1.648252177E1,4.520402849E-2,1.406822681E0,3.587000608E0
1.649252423E1,8.552113548E-3,1.648725271E0,3.928474426E0
1.650251077E1,-7.941247895E-3,1.853976011E0,4.195422649E0
1.651254362E1,0.000000000E0,1.999361992E0,4.391510010E0
1.652253039E1,3.420845419E-2,2.067778826E0,4.512461662E0
1.653253293E1,8.979719132E-2,2.046398640E0,4.549724579E0
1.654251939E1,1.728748679E-1,1.959655762E0,4.524678707E0
1.655255231E1,2.822197378E-1,1.810604572E0,4.470311642E0
1.656250831E1,4.245513380E-1,1.545489073E0,4.368908405E0
1.657254123E1,4.624249935E-1,1.373225093E0,4.306600094E0
1.658252793E1,4.453207552E-1,1.227228284E0,4.263228416E0
1.659253039E1,3.878994286E-1,1.120937705E0,4.229630947E0
1.660251685E1,3.225368559E-1,1.056796908E0,4.183205128E0
1.661254985E1,2.559525371E-1,1.026253581E0,4.126394749E0
1.662250585E1,2.040289938E-1,1.036638379E0,4.065308094E0
1.663253870E1,1.563815027E-1,1.076344609E0,3.990171671E0
1.664252547E1,1.185078546E-1,1.137431145E0,3.902207136E0
1.665252793E1,9.957103431E-2,1.194852471E0,3.811799049E0
1.666251446E1,9.162978828E-2,1.246165156E0,3.720169306E0
1.667254731E1,9.346238524E-2,1.299921274E0,3.626707077E0
1.668250339E1,1.044579595E-1,1.340849161E0,3.535077095E0
1.669253654E1,1.185078546E-1,1.350012183E0,3.444058180E0
1.670252300E1,1.172861308E-1,1.339627504E0,3.340821981E0
1.671252547E1,8.979719132E-2,1.309084177E0,3.223536015E0
1.672251200E1,2.748893574E-2,1.258382440E0,3.077539206E0
1.673254493E1,-8.124507964E-2,1.178359032E0,2.888170958E0
1.674250116E1,-2.058615834E-1,1.078177214E0,2.667037725E0
1.675253385E1,-3.127630055E-1,9.370672703E-1,2.442239285E0
1.676252054E1,-4.031710625E-1,7.531968355E-1,2.221106052E0
1.677255354E1,-4.880813360E-1,5.381723046E-1,2.007303238E0
1.678250954E1,-5.595525503E-1,2.993239760E-1,1.816102386E0
1.679254239E1,-6.377432942E-1,5.497787148E-2,1.642005801E0
1.680252924E1,-7.501425147E-1,-1.753183305E-1,1.475239515E0
1.681253162E1,-8.851437569E-1,-3.976732790E-1,1.321301579E0
1.682251816E1,-1.015868902E0,-6.395758986E-1,1.191187263E0
1.683255108E1,-1.110553026E0,-8.894197941E-1,1.071457624E0
1.684250708E1,-1.149648428E0,-1.183246017E0,1.003651619E0
1.685253993E1,-1.100168347E0,-1.680490255E0,9.871582389E-1
1.686252670E1,-1.025031924E0,-1.996918440E0,9.859365225E-1
1.687252670E1,-8.955284357E-1,-2.251038313E0,9.450085163E-1
1.688251570E1,-6.627888083E-1,-2.415971994E0,7.880161405E-1
1.689254677E1,-3.347541690E-1,-2.458121777E0,4.844161272E-1
1.690250462E1,4.276056588E-2,-2.370157242E0,5.558873713E-2
1.691253593E1,4.263839424E-1,-2.209499598E0,-4.221078753E-1
1.692252431E1,7.800748944E-1,-2.010968447E0,-8.717046976E-1
1.693252454E1,1.103833556E0,-1.786780834E0,-1.265712738E0
1.694251324E1,1.393383622E0,-1.527773976E0,-1.602299571E0
1.695254424E1,1.654833913E0,-1.198517561E0,-1.914451718E0
1.696250239E1,1.849699974E0,-8.179485798E-1,-2.221716881E0
1.697253316E1,1.940108061E0,-4.282165468E-1,-2.507601738E0
1.698252085E1,1.905899525E0,-5.619960278E-2,-2.760499954E0
1.699252362E1,1.764789701E0,2.632829249E-1,-3.000570059E0
1.700251016E1,1.545489073E0,4.703662395E-1,-3.244916201E0
1.701254331E1,1.316414595E0,5.045747161E-1,-3.502090454E0
1.702252977E1,1.100168347E0,3.677408695E-1,-3.763540745E0
1.703253008E1,8.973610401E-1,9.896016866E-2,-3.992615223E0
1.704251877E1,7.012733221E-1,-2.553416789E-1,-4.186259747E0
1.705255170E1,5.143485069E-1,-6.377432942E-1,-4.353636742E0
1.706250793E1,3.280346394E-1,-1.026864529E0,-4.508796215E0
1.707254085E1,1.105666086E-1,-1.404990077E0,-4.659679890E0
1.708252793E1,-1.453859210E-1,-1.749518037E0,-4.789794445E0
1.709253039E1,-4.202753007E-1,-2.035403013E0,-4.884478569E0
1.710251685E1,-7.037167549E-1,-2.255925417E0,-4.911967278E0
1.711254977E1,-9.853256345E-1,-2.395813465E0,-4.853935242E0
1.712250585E1,-1.232115149E0,-2.454456568E0,-4.740314484E0
1.713253900E1,-1.419650793E0,-2.414139509E0,-4.608978271E0
1.714252547E1,-1.585806131E0,-2.180178165E0,-4.419610023E0
1.715252793E1,-1.638340592E0,-1.946827531E0,-4.303545475E0
1.716251447E1,-1.663386106E0,-1.679879427E0,-4.198476791E0
1.717254739E1,-1.638951421E0,-1.382387996E0,-4.097073078E0
1.718250339E1,-1.553430319E0,-1.076955438E0,-4.007276058E0
1.719253631E1,-1.329242826E0,-8.582656980E-1,-3.911370277E0
1.720252300E1,-1.169806957E0,-4.190535545E-1,-3.786142826E0
1.721252547E1,-9.908234477E-1,-1.356120855E-1,-3.667024136E0
1.722251201E1,-7.299839854E-1,-2.443460934E-2,-3.478877544E0
1.723254277E1,-4.587597847E-1,4.642575979E-2,-3.181386232E0
1.724250116E1,-2.101376504E-1,4.703662544E-2,-2.785545588E0
1.725253201E1,7.941247895E-3,-1.466076635E-2,-2.339003086E0
1.726252062E1,1.899790913E-1,-8.368854225E-2,-1.885740995E0
1.727255131E1,3.207042515E-1,-1.423316002E-1,-1.468520045E0
1.728250954E1,4.031710625E-1,-2.186897546E-1,-1.130100727E0
1.729254247E1,4.312708676E-1,-3.188716471E-1,-8.790351152E-1
1.730252916E1,3.976732790E-1,-4.068362415E-1,-7.171558142E-1
1.731253162E1,3.231477141E-1,-4.960225821E-1,-6.517932415E-1
1.732251808E1,2.260201424E-1,-6.047565937E-1,-6.407976151E-1
1.733254916E1,1.062905490E-1,-7.220427394E-1,-6.065891981E-1
1.734250708E1,-3.054326214E-2,-8.136724830E-1,-5.088507533E-1
1.735253778E1,-1.539380401E-1,-8.692612648E-1,-3.524692357E-1
1.736252670E1,-2.241875380E-1,-9.126327038E-1,-1.759291887E-1
1.737252678E1,-2.345722616E-1,-8.741481900E-1,1.038470957E-2
1.738251562E1,-1.857030392E-1,-7.397578359E-1,2.351831198E-1
1.739254639E1,-6.597344577E-2,-4.905247986E-1,4.960225821E-1
1.740250462E1,9.590584040E-2,-1.246165112E-1,7.855727077E-1
1.741253562E1,2.528982162E-1,3.084869385E-1,1.125213742E0
1.742252424E1,3.628539443E-1,7.409795523E-1,1.527163148E0
1.743252454E1,3.872885704E-1,1.324966669E0,2.192395449E0
1.744251324E1,3.359758854E-1,1.607186437E0,2.618779421E0
1.745254639E1,2.706133127E-1,1.804495931E0,2.977357149E0
1.746250216E1,1.960877478E-1,1.944994926E0,3.260798693E0
1.747253508E1,1.154535338E-1,2.007914066E0,3.466660261E0
1.748252178E1,3.543018550E-2,1.984701157E0,3.573561668E0
1.749252431E1,-4.948008433E-2,1.887573600E0,3.596774578E0
1.750253347E1,-1.307251602E-1,1.734246373E0,3.571729183E0
1.751254370E1,-1.960877478E-1,1.533882618E0,3.536298990E0
1.752253039E1,-2.461786866E-1,1.323745012E0,3.514918566E0
1.753253285E1,-2.987131178E-1,1.126435518E0,3.525303364E0
1.754251931E1,-3.494149148E-1,9.486737251E-1,3.572950840E0
1.755255231E1,-3.897320330E-1,8.026769161E-1,3.654195786E0
1.756250831E1,-4.013384581E-1,7.147123218E-1,3.744603872E0
1.757254147E1,-3.909537494E-1,6.811147332E-1,3.813631773E0
1.758252793E1,-3.866777122E-1,6.914994717E-1,3.847840071E0
1.759253016E1,-4.031710625E-1,7.220427394E-1,3.849061966E0
1.760251685E1,-4.331034720E-1,7.580837607E-1,3.830735922E0
1.761258062E1,-4.624249935E-1,7.715228200E-1,3.796527386E0
1.762250585E1,-4.990769029E-1,7.568620443E-1,3.738495350E0
1.763253878E1,-5.522221923E-1,7.330383062E-1,3.642589569E0
1.764252547E1,-6.267477274E-1,7.128797174E-1,3.503312111E0
1.765252585E1,-7.079927921E-1,6.969972253E-1,3.320052624E0
1.766251447E1,-7.867944241E-1,6.823364496E-1,3.071430445E0
1.767254524E1,-8.704829812E-1,6.658431292E-1,2.761111021E0
1.768250362E1,-9.712757468E-1,6.438519955E-1,2.420858860E0
1.769253416E1,-1.071457624E0,5.839871764E-1,2.082439661E0
1.770252301E1,-1.145372391E0,4.929682612E-1,1.772120118E0
1.771252547E1,-1.186300278E0,3.921754956E-1,1.504561067E0
1.772251201E1,-1.224784851E0,2.571742535E-1,1.188743711E0
1.773254493E1,-1.221730471E0,1.826487035E-1,1.043968678E0
1.774250116E1,-1.203404546E0,1.038470939E-1,9.639453292E-1
1.775253378E1,-1.155146122E0,2.138028294E-2,9.279043078E-1
1.776252062E1,-1.055575132E0,-6.291911751E-2,9.077457786E-1
1.777255324E1,-9.242390990E-1,-1.069014147E-1,8.851437569E-1
1.778250954E1,-8.093964458E-1,-1.240056455E-1,8.637634516E-1
1.779254270E1,-7.165449262E-1,-1.453859210E-1,8.118399382E-1
1.780252916E1,-6.114761233E-1,-1.710422635E-1,7.373143435E-1
1.781253162E1,-4.960225821E-1,-1.850921661E-1,6.627888083E-1
1.782251816E1,-3.885102868E-1,-2.040289938E-1,5.852088928E-1
1.783255101E1,-2.742784917E-1,-2.547308207E-1,4.783074856E-1
1.784250708E1,-1.276708394E-1,-3.347541690E-1,3.298672438E-1
1.785253785E1,9.651670605E-2,-4.386012554E-1,1.453859210E-1
1.786252678E1,4.190535545E-1,-5.644394755E-1,-5.864306539E-2
1.787252670E1,8.142833710E-1,-6.908885837E-1,-2.681698501E-1
1.788251570E1,1.211956620E0,-7.422012687E-1,-4.825835526E-1
1.789254854E1,1.563204169E0,-7.257078886E-1,-6.817256212E-1
1.790250485E1,1.842369556E0,-6.994407177E-1,-8.515461683E-1
1.791253755E1,2.012800932E0,-6.469063163E-1,-9.828822017E-1
1.792252431E1,2.042733431E0,-5.815436840E-1,-1.083674908E0
1.793252647E1,1.923614621E0,-5.100724697E-1,-1.166141748E0
1.794251347E1,1.695761919E0,-4.685336351E-1,-1.241278172E0
1.795254824E1,1.445307136E0,-4.838052690E-1,-1.308473349E0
1.796250239E1,1.210124016E0,-5.626068711E-1,-1.379333735E0
1.797253754E1,9.737191796E-1,-6.572909951E-1,-1.466687441E0
1.798252085E1,7.281513810E-1,-7.544185519E-1,-1.583973527E0
1.799252362E1,4.899139404E-1,-8.594874144E-1,-1.739133358E0
1.800251016E1,2.620611787E-1,-9.627236128E-1,-1.932166815E0
1.801254308E1,-7.941248268E-2,-1.122770309E0,-2.239432096E0
1.802252978E1,-2.932153046E-1,-1.235169530E0,-2.411695957E0
1.803253447E1,-4.844161272E-1,-1.332907915E0,-2.572353601E0
1.804251878E1,-6.621779203E-1,-1.392161846E0,-2.726902485E0
1.805255170E1,-8.185594082E-1,-1.403768301E0,-2.869234085E0
1.806250793E1,-9.547823668E-1,-1.385442376E0,-3.003624439E0
1.807254062E1,-1.058629513E0,-1.342070937E0,-3.135571241E0
1.808252793E1,-1.109942198E0,-1.265101910E0,-3.266296387E0
1.809253039E1,-1.116661668E0,-1.167363524E0,-3.389691353E0
1.810251685E1,-1.075733662E0,-1.074512005E0,-3.503922939E0
1.811254978E1,-9.920451641E-1,-9.651671052E-1,-3.613878727E0
1.812250608E1,-8.613200188E-1,-8.429940343E-1,-3.720169306E0
1.813253901E1,-6.835582256E-1,-7.312057018E-1,-3.816686153E0
1.814252547E1,-4.838052690E-1,-6.059783101E-1,-3.881437778E0
1.815252793E1,-2.767219543E-1,-4.654793143E-1,-3.906483173E0
1.816251447E1,-6.414084882E-2,-2.981022298E-1,-3.896709442E0
1.817254739E1,1.502728462E-1,-1.178969890E-1,-3.843564034E0
1.818250339E1,3.597996235E-1,1.197295859E-1,-3.728721380E0
1.819253416E1,5.778785348E-1,4.050036669E-1,-3.530190229E0
1.820252301E1,8.002334833E-1,7.226535678E-1,-3.240029335E0
1.821252339E1,1.017090678E0,1.075122833E0,-2.838079929E0
1.822251201E1,1.209513187E0,1.425759435E0,-2.313957453E0
1.823254270E1,1.332907915E0,1.714698792E0,-1.691485882E0
1.824250116E1,1.362229466E0,1.914451718E0,-1.040914416E0
1.825253170E1,1.299921274E0,1.974927306E0,-4.324925840E-1
1.826252055E1,1.132544160E0,1.858862996E0,8.613199741E-2
1.827255108E1,8.619308472E-1,1.599856019E0,5.033529401E-1
1.828250955E1,5.259549618E-1,1.262658477E0,8.032878041E-1
1.829254032E1,1.789835095E-1,8.448266387E-1,9.957103729E-1
1.830252924E1,-2.614503205E-1,1.759291887E-1,1.117883444E0
1.831252924E1,-4.514294267E-1,-2.315179259E-1,1.124602914E0
1.832251816E1,-5.778785348E-1,-5.430592299E-1,1.083674908E0
1.833255109E1,-6.884451509E-1,-6.957755089E-1,1.012203693E0
1.834250708E1,-7.977899909E-1,-6.695083380E-1,9.553932548E-1
1.835253809E1,-9.004153609E-1,-5.235115290E-1,9.511171579E-1
1.836252670E1,-1.006095052E0,-3.097086847E-1,1.025031924E0
1.837252678E1,-1.111774802E0,-6.169738993E-2,1.174082994E0
1.838251570E1,-1.213178396E0,1.783726513E-1,1.379333735E0
1.839254647E1,-1.290147424E0,3.909537494E-1,1.616960287E0
1.840250462E1,-1.323745012E0,5.729916096E-1,1.855197787E0
1.841253755E1,-1.326188445E0,7.141014934E-1,2.053729057E0
1.842252424E1,-1.325577617E0,7.959573865E-1,2.183843136E0
1.843252647E1,-1.321301579E0,8.393288255E-1,2.244929790E0
1.844251324E1,-1.296256065E0,8.112290502E-1,2.266921043E0
1.845254639E1,-1.237612963E0,7.018841505E-1,2.284025192E0
1.846250216E1,-1.147204876E0,5.351179838E-1,2.309070587E0
1.847253508E1,-1.049466491E0,3.628539443E-1,2.353052855E0
1.848252185E1,-9.633345008E-1,2.278527319E-1,2.430022001E0
1.849252424E1,-8.930850029E-1,1.423316002E-1,2.544864655E0
1.850251078E1,-8.393288255E-1,9.346238524E-2,2.681087494E0
1.851254362E1,-8.002334833E-1,7.330382615E-2,2.809980154E0
1.852253039E1,-7.672467232E-1,9.040805697E-2,2.919325113E0
1.853253285E1,-7.312057018E-1,1.404990107E-1,3.006678820E0
1.854251932E1,-6.853908300E-1,2.131919712E-1,3.065321684E0
1.855255224E1,-6.279694438E-1,3.011565804E-1,3.099530220E0
1.856250832E1,-5.589417219E-1,4.062253833E-1,3.101362944E0
1.857254155E1,-4.838052690E-1,5.241223574E-1,3.068986893E0
1.858252793E1,-4.068362415E-1,6.328563690E-1,3.009732962E0
1.859253039E1,-3.054326177E-1,7.648032904E-1,2.866790533E0
1.860251686E1,-2.309070677E-1,8.063421249E-1,2.744006634E0
1.861254986E1,-1.527163088E-1,7.916813493E-1,2.601675034E0
1.862250586E1,-9.101892263E-2,7.715228200E-1,2.433076382E0
1.863253878E1,-5.192354694E-2,7.629706860E-1,2.243708134E0
1.864252547E1,-4.153883830E-2,7.568620443E-1,2.037235498E0
1.865252801E1,-8.491026610E-2,7.495316267E-1,1.822821856E0
1.866251447E1,-1.844813079E-1,7.324274182E-1,1.620625496E0
1.867254732E1,-3.029891551E-1,6.841690540E-1,1.438587666E0
1.868250339E1,-4.001167417E-1,5.845980644E-1,1.290758252E0
1.869253655E1,-4.587597847E-1,4.428772926E-1,1.163087368E0
1.870252301E1,-4.862487316E-1,3.048217595E-1,1.047633886E0
1.871252524E1,-5.002986193E-1,1.954768747E-1,9.462302923E-1
1.872251201E1,-5.210680366E-1,1.123992056E-1,8.649851680E-1
1.873254493E1,-5.632177591E-1,3.054326214E-2,7.996225953E-1
1.874250116E1,-6.255260110E-1,-1.001819000E-1,7.269296646E-1
1.875253193E1,-6.768386960E-1,-2.632829249E-1,6.114761233E-1
1.876252055E1,-6.847799420E-1,-4.459316432E-1,4.471533597E-1
1.877255109E1,-6.407976151E-1,-6.078109145E-1,2.199114859E-1
1.878250955E1,-5.613851547E-1,-7.238753438E-1,-8.918632567E-2
1.879254093E1,-4.685336351E-1,-8.057312369E-1,-4.581489265E-1
1.880252916E1,-3.622430861E-1,-8.619308472E-1,-8.289441466E-1
1.881252924E1,-2.455678284E-1,-8.808676600E-1,-1.148426652E0
1.882251816E1,-1.301143020E-1,-8.747590184E-1,-1.408655286E0
1.883255101E1,-2.015855350E-2,-8.570439219E-1,-1.614516854E0
1.884250732E1,1.038470939E-1,-8.246681094E-1,-1.762957096E0
1.885254024E1,2.510656118E-1,-7.892379165E-1,-1.854586840E0
1.886252670E1,3.933972120E-1,-7.483099103E-1,-1.902234316E0
1.887252893E1,5.204572082E-1,-7.086036801E-1,-1.910175562E0
1.888251570E1,6.420193911E-1,-6.701191664E-1,-1.858252048E0
1.889254862E1,6.469063163E-1,-6.646214128E-1,-1.822821856E0
1.890250463E1,5.962044597E-1,-6.829473376E-1,-1.839315295E0
1.891253755E1,5.314527750E-1,-7.171558142E-1,-1.929723263E0
1.892252432E1,4.960225821E-1,-7.733554244E-1,-2.067778826E0
1.893252701E1,5.125159621E-1,-8.741481900E-1,-2.208277941E0
1.894251324E1,5.900958180E-1,-9.926560521E-1,-2.329229116E0
1.895254616E1,7.159340382E-1,-1.103833556E0,-2.419637203E0
1.896250239E1,8.576548100E-1,-1.200350165E0,-2.484999895E0
1.897253532E1,9.468411207E-1,-1.257771492E0,-2.536923409E0
1.898252086E1,9.254608750E-1,-1.256549835E0,-2.583349228E0
1.899252586E1,7.977899909E-1,-1.208902359E0,-2.631607533E0
1.900251016E1,5.998696685E-1,-1.144761443E0,-2.682309389E0
1.901254547E1,3.652974069E-1,-1.089172721E0,-2.726291656E0
1.902252986E1,1.252273768E-1,-1.047023058E0,-2.761721849E0
1.903253224E1,-8.307767659E-2,-1.007316828E0,-2.787988901E0
1.904251878E1,-2.412917763E-1,-9.804387093E-1,-2.820975780E0
1.905255193E1,-3.720169365E-1,-9.468411207E-1,-2.892446995E0
1.906250793E1,-4.929682612E-1,-8.979719281E-1,-3.001791716E0
1.907254063E1,-6.035348773E-1,-8.533787727E-1,-3.122132301E0
1.908252793E1,-6.951646209E-1,-8.087855577E-1,-3.241861820E0
1.909253039E1,-7.727445364E-1,-7.550294399E-1,-3.370143652E0
1.910251686E1,-8.362745047E-1,-7.312057018E-1,-3.488651514E0
1.911254986E1,-8.698720932E-1,-7.171558142E-1,-3.590665817E0
1.912250586E1,-8.399397135E-1,-6.579018831E-1,-3.688404322E0
1.913253901E1,-7.324274182E-1,-5.754350424E-1,-3.773314714E0
1.914252547E1,-5.613851547E-1,-4.825835526E-1,-3.819740295E0
1.915252578E1,-3.213151097E-1,-3.567453027E-1,-3.792862415E0
1.916251447E1,-2.015855350E-2,-2.480112910E-1,-3.649308920E0
1.917254547E1,4.557054639E-1,-1.087340117E-1,-3.132516861E0
1.918250339E1,7.043276429E-1,-4.886921868E-2,-2.572964430E0
1.919253416E1,8.332201838E-1,-1.282817032E-2,-1.883908391E0
1.920252309E1,8.289441466E-1,2.382374369E-2,-1.116050839E0
1.921252332E1,7.116580009E-1,2.321287990E-2,-3.262020350E-1
1.922251201E1,5.406157374E-1,-4.948008433E-2,3.891211748E-1
1.923254270E1,3.506366611E-1,-1.942551434E-1,9.169087410E-1
1.924250116E1,1.637118906E-1,-3.677408695E-1,1.241889000E0
1.925253193E1,-9.162978269E-3,-5.149593949E-1,1.417818189E0
1.926252055E1,-1.221730486E-1,-6.505714655E-1,1.502117634E0
1.927255132E1,-1.576032341E-1,-7.391469479E-1,1.512502313E0
1.928250955E1,-1.459967941E-1,-7.061602473E-1,1.474628687E0
1.929254062E1,-1.069014147E-1,-5.125159621E-1,1.432479024E0
1.930252916E1,-3.787364438E-2,-1.747074574E-1,1.425759435E0
1.931252924E1,3.604105115E-2,2.706133127E-1,1.477072120E0
1.932251809E1,8.002334833E-2,7.483099103E-1,1.613295078E0
1.933254916E1,8.735372871E-2,1.168585181E0,1.838093519E0
1.934250709E1,5.803219974E-2,1.507615447E0,2.105652571E0
1.935253786E1,-9.162978269E-3,1.756237626E0,2.393369913E0
1.936252670E1,-9.101892263E-2,1.913229942E0,2.684141874E0
1.937252916E1,-1.533271819E-1,1.985312104E0,2.960253000E0
1.938251570E1,-1.850921661E-1,1.977370739E0,3.211929560E0
1.939254855E1,-1.789835095E-1,1.885130167E0,3.428786516E0
1.940250463E1,-1.521054506E-1,1.756848454E0,3.601050615E0
1.941253778E1,-1.044579595E-1,1.585195303E0,3.739717007E0
1.942252424E1,-4.092797264E-2,1.356731653E0,3.859446526E0
1.943252647E1,1.160643995E-2,1.120937705E0,3.967569828E0
1.944251324E1,4.153883830E-2,9.114109278E-1,4.065308094E0
1.945254616E1,5.375614017E-2,6.780604124E-1,4.185037613E0
1.946250216E1,5.925392732E-2,5.729916096E-1,4.247956753E0
1.947253509E1,6.841690838E-2,5.119050741E-1,4.295604229E0
1.948252178E1,7.819075137E-2,4.990769029E-1,4.320038795E0
1.949252432E1,8.429940045E-2,5.241223574E-1,4.312708855E0
1.950251078E1,8.857546002E-2,5.797111392E-1,4.268726349E0
1.951254363E1,9.285151958E-2,6.462954283E-1,4.185648441E0
1.952253040E1,9.957103431E-2,7.177666426E-1,4.061032295E0
1.953253293E1,1.001819000E-1,7.757988572E-1,3.896098614E0
1.954251940E1,8.368854225E-2,8.161159754E-1,3.687182665E0
1.955255009E1,5.681046844E-2,8.448266387E-1,3.443447351E0
1.956250855E1,3.848451003E-2,8.497135639E-1,3.178942680E0
1.957253932E1,3.237585723E-2,8.234463334E-1,2.900999069E0
1.958252793E1,1.466076635E-2,7.904596329E-1,2.609616280E0
1.959252824E1,-2.382374369E-2,7.660250068E-1,2.311514139E0
1.960251686E1,-7.880161703E-2,7.379252315E-1,2.015855312E0
1.961258063E1,-1.514945775E-1,7.006624341E-1,1.733024716E0
1.962250586E1,-2.345722616E-1,6.469063163E-1,1.469741821E0
1.963253870E1,-3.164281845E-1,5.955936313E-1,1.222952247E0
1.964252547E1,-4.007275999E-1,5.314527750E-1,9.944885969E-1
1.965252824E1,-4.819726646E-1,4.612032473E-1,7.971791625E-1
1.966251447E1,-5.552765131E-1,3.909537494E-1,6.218608022E-1
1.967254732E1,-6.175847650E-1,2.932153046E-1,4.349360466E-1
1.968250363E1,-6.652322412E-1,1.533271819E-1,2.370157093E-1
1.969253632E1,-6.786713004E-1,1.893682219E-2,5.986479297E-2
1.970252301E1,-6.560692787E-1,-9.896016866E-2,-1.014036313E-1
1.971252517E1,-6.059783101E-1,-2.528982162E-1,-2.675589919E-1
1.972251201E1,-5.125159621E-1,-4.123340547E-1,-4.324925840E-1
1.973254493E1,-3.652974069E-1,-5.351179838E-1,-5.668829679E-1
1.974250116E1,-2.040289938E-1,-6.120869517E-1,-6.719517708E-1
1.975253386E1,-5.803219974E-2,-6.542366743E-1,-8.362745047E-1
1.976252055E1,-3.665191308E-2,-6.322455406E-1,-9.621127844E-1
1.977255355E1,-6.230825558E-2,-6.328563690E-1,-1.115439892E0
1.978250955E1,-8.368854225E-2,-6.774495840E-1,-1.324966669E0
1.979254240E1,-5.314527452E-2,-7.617489696E-1,-1.577254057E0
1.980252917E1,5.436700583E-2,-8.619308472E-1,-1.843591332E0
1.981253163E1,2.235766798E-1,-9.505063295E-1,-2.096489429E0
1.982251816E1,4.178318381E-1,-9.847147465E-1,-2.315179348E0
1.983255132E1,5.931501389E-1,-9.560040832E-1,-2.486221552E0
1.984250709E1,7.141014934E-1,-9.016370773E-1,-2.622444391E0
1.985254024E1,7.660250068E-1,-8.454375267E-1,-2.746450186E0
1.986252670E1,7.525860071E-1,-7.947356701E-1,-2.871677399E0
1.987252916E1,6.933320761E-1,-7.489207983E-1,-2.994461536E0
1.988251570E1,6.249151230E-1,-7.220427394E-1,-3.096475840E0
1.989254863E1,5.925393105E-1,-7.195992470E-1,-3.164282084E0
1.990250486E1,5.974262357E-1,-7.385360599E-1,-3.205209970E0
1.991253755E1,6.102544069E-1,-7.648032904E-1,-3.227200985E0
1.992252432E1,5.913175344E-1,-7.849618196E-1,-3.244305372E0
1.993252670E1,4.996877611E-1,-7.764097452E-1,-3.262631178E0
1.994251324E1,3.194825351E-1,-7.574729323E-1,-3.280346394E0
1.995254640E1,6.536258012E-2,-7.483099103E-1,-3.305391788E0
1.996250240E1,-2.290744632E-1,-7.696902156E-1,-3.336545944E0
1.997253540E1,-5.229006410E-1,-8.356636763E-1,-3.366478443E0
1.998252086E1,-7.874053121E-1,-9.236282706E-1,-3.405573845E0
1.999252363E1,-1.006705880E0,-9.865473509E-1,-3.462384224E0
2.000251040E1,-1.182024240E0,-1.009760261E0,-3.526525021E0
2.001254332E1,-1.321912408E0,-1.008538485E0,-3.589444160E0
2.002252978E1,-1.426981211E0,-9.743300676E-1,-3.652363300E0
2.003253224E1,-1.485013366E0,-9.108000994E-1,-3.756821156E0
2.004251878E1,-1.456302762E0,-8.643743396E-1,-3.775758028E0
2.005255170E1,-1.379944563E0,-7.929030657E-1,-3.743382215E0
2.006250794E1,-1.260215044E0,-7.141014934E-1,-3.672521830E0
2.007253870E1,-1.091616154E0,-6.224716902E-1,-3.557068348E0
2.008252794E1,-8.698720932E-1,-5.448917747E-1,-3.405573845E0
2.009252824E1,-6.065891981E-1,-4.734205604E-1,-3.214983702E0
2.010251686E1,-3.249803185E-1,-3.958406746E-1,-2.969415903E0
2.011254763E1,-4.092797264E-2,-2.968805134E-1,-2.654209375E0
2.012250586E1,2.339613885E-1,-1.557706445E-1,-2.266309977E0
2.013253694E1,4.923573732E-1,-6.719517522E-3,-1.828319669E0
2.014252547E1,7.165449262E-1,1.539380401E-1,-1.375057697E0
2.015252578E1,8.619308472E-1,2.968805134E-1,-9.236282706E-1
2.016251447E1,9.053022861E-1,4.214970171E-1,-4.935791194E-1
2.017254517E1,8.454375267E-1,5.167919993E-1,-7.574728876E-2
2.018250340E1,6.976081133E-1,5.558874011E-1,3.072652221E-1
2.019253417E1,4.746423066E-1,5.308418870E-1,6.322455406E-1
2.020252301E1,1.966986060E-1,3.836233616E-1,8.857545853E-1
2.021252332E1,-9.712757170E-2,1.380555481E-1,1.056796908E0
2.022251201E1,-3.714060783E-1,-1.295034289E-1,1.173472166E0
2.023254270E1,-5.815436840E-1,-3.811798990E-1,1.268767118E0
2.024250117E1,-6.914994717E-1,-5.907067060E-1,1.358564258E0
2.025253194E1,-7.299839854E-1,-6.701191664E-1,1.437976837E0
2.026252055E1,-7.220427394E-1,-5.681046844E-1,1.519832730E0
2.027255132E1,-6.566801667E-1,-3.390302062E-1,1.612684250E0
